State - Time (s),State - Stage,State - Stage,State - PX (m),State - PY (m),State - PZ (m),State - VX (m/s),State - VY (m/s),State - VZ (m/s),State - AX (m/s/s),State - AY (m/s/s),State - AZ (m/s/s),MAX-M10S - Lat,MAX-M10S - Lon,MAX-M10S - Alt (m),MAX-M10S - Disp X (m),MAX-M10S - Disp Y (m),MAX-M10S - Disp Z (m),MAX-M10S - Fix Quality,MAX-M10S - Time of Day,DPS310 - Pres (hPa),DPS310 - Temp (C),DPS310 - Alt ASL (m),DPS310 - Alt AGL (m),BMI088andLIS3MDL - AccX (m/s^2),BMI088andLIS3MDL - AccY (m/s^2),BMI088andLIS3MDL - AccZ (m/s^2),BMI088andLIS3MDL - GyroX (rad/s),BMI088andLIS3MDL - GyroY (rad/s),BMI088andLIS3MDL - GyroZ (rad/s),BMI088andLIS3MDL - MagX (uT),BMI088andLIS3MDL - MagY (uT),BMI088andLIS3MDL - MagZ (uT),BMI088andLIS3MDL - OriX,BMI088andLIS3MDL - OriY,BMI088andLIS3MDL - OriZ,BMI088andLIS3MDL - OriW,Flight Computer Voltage - Raw Voltage (V),Flight Computer Voltage - Real Voltage (V)
7.629,0,0,9.648,-188.290,214.338,2.529,-49.362,56.190,0.332,-6.470,7.365,0.0000000,0.0000000,0.000,0.000,0.000,0.000,0,00:00:00,1007.685,38.726,46.406,0.000,-9.797,-0.481,0.043,-0.045,0.049,-0.058,-3145.000,2000.000,2616.000,0.647,0.282,-0.663,0.249,3.297,8.242
7.870,0,0,9.331,-182.162,190.060,2.584,-50.953,57.922,0.227,-6.602,7.187,0.0000000,0.0000000,0.000,0.000,0.000,0.000,0,00:00:00,1007.705,38.734,46.238,-0.084,-9.754,-0.359,0.129,-0.053,0.107,-0.115,-3208.000,2038.000,2644.000,0.647,0.288,-0.661,0.250,3.255,8.137
8.071,0,0,8.239,-160.886,146.504,2.472,-48.383,52.328,0.431,-6.504,7.254,0.0000000,0.0000000,0.000,0.000,0.000,0.000,0,00:00:00,1007.660,38.733,46.619,0.198,-9.740,-0.488,0.057,-0.006,-0.083,-0.104,-3213.000,1997.000,2601.000,0.642,0.289,-0.665,0.250,3.226,8.065
8.272,0,0,6.829,-133.338,104.450,2.154,-41.682,41.764,0.465,-6.624,7.230,0.0000000,0.0000000,0.000,0.000,0.000,0.000,0,00:00:00,1007.687,38.737,46.390,-0.023,-9.812,-0.287,0.108,0.051,-0.062,-0.213,-3018.000,2013.000,2511.000,0.640,0.286,-0.669,0.246,3.223,8.056
8.473,0,0,5.384,-105.074,71.079,1.645,-31.771,29.392,0.325,-6.458,7.357,0.0000000,0.0000000,0.000,0.000,0.000,0.000,0,00:00:00,1007.680,38.744,46.449,0.028,-9.790,-0.287,0.022,0.107,0.038,0.021,-2997.000,1964.000,2612.000,0.650,0.273,-0.666,0.245,3.281,8.202
8.674,0,0,4.067,-79.323,46.725,1.061,-20.549,17.995,0.269,-6.153,7.539,0.0000000,0.0000000,0.000,0.000,0.000,0.000,0,00:00:00,1007.680,38.740,46.452,0.027,-9.718,-0.546,0.136,0.045,0.036,-0.062,-3098.000,2043.000,2600.000,0.649,0.274,-0.668,0.238,3.300,8.250
8.875,0,0,2.950,-57.522,29.709,0.511,-9.948,9.016,0.294,-6.287,7.443,0.0000000,0.0000000,0.000,0.000,0.000,0.000,0,00:00:00,1007.687,38.745,46.392,-0.029,-9.740,-0.381,0.050,0.002,-0.038,0.051,-3030.000,1994.000,2648.000,0.650,0.269,-0.668,0.243,3.219,8.048
9.076,0,0,2.051,-40.011,18.192,0.045,-1.136,2.905,0.239,-6.081,7.611,0.0000000,0.0000000,0.000,0.000,0.000,0.000,0,00:00:00,1007.698,38.754,46.303,-0.103,-9.733,-0.481,-0.029,0.085,0.026,0.130,-3238.000,2047.000,2677.000,0.657,0.261,-0.666,0.239,3.232,8.081
9.277,0,0,1.358,-26.534,10.679,-0.291,5.336,-0.589,0.280,-5.908,7.816,0.0000000,0.0000000,0.000,0.000,0.000,0.000,0,00:00:00,1007.696,38.758,46.316,-0.080,-9.790,-0.467,0.065,0.143,-0.017,-0.098,-3086.000,2000.000,2643.000,0.656,0.257,-0.673,0.225,3.290,8.226
9.478,0,0,0.844,-16.557,5.987,-0.524,9.461,-2.058,0.176,-5.782,7.936,0.0000000,0.0000000,0.000,0.000,0.000,0.000,0,00:00:00,1007.687,38.760,46.395,-0.001,-9.805,-0.539,0.101,0.053,0.017,0.138,-3208.000,2022.000,2612.000,0.659,0.249,-0.673,0.225,3.265,8.161
9.679,0,0,0.476,-9.451,3.178,-0.630,11.519,-2.203,0.289,-5.892,7.797,0.0000000,0.0000000,0.000,0.000,0.000,0.000,0,00:00:00,1007.684,38.758,46.414,0.018,-9.769,-0.395,0.050,-0.017,0.000,-0.102,-2997.000,1970.000,2609.000,0.658,0.254,-0.673,0.223,3.242,8.105
9.880,0,0,0.227,-4.600,1.543,-0.632,11.998,-1.568,0.397,-5.874,7.769,0.0000000,0.0000000,0.000,0.000,0.000,0.000,0,00:00:00,1007.698,38.764,46.296,-0.100,-9.740,-0.388,-0.007,0.002,-0.060,-0.102,-3016.000,1946.000,2671.000,0.656,0.256,-0.675,0.221,3.235,8.089
10.081,0,0,0.065,-1.454,0.725,-0.619,11.365,-0.471,0.186,-5.852,7.747,0.0000000,0.0000000,0.000,0.000,0.000,0.000,0,00:00:00,1007.695,38.787,46.325,-0.071,-9.704,-0.338,0.108,0.028,0.072,-0.017,-3043.000,1940.000,2604.000,0.660,0.252,-0.673,0.221,3.258,8.145
10.282,0,0,-0.034,0.447,0.373,-0.556,10.017,0.805,0.248,-5.856,7.802,0.0000000,0.0000000,0.000,0.000,0.000,0.000,0,00:00:00,1007.701,38.764,46.271,-0.125,-9.747,-0.438,0.151,-0.036,-0.017,-0.081,-3180.000,1983.000,2664.000,0.655,0.255,-0.675,0.222,3.297,8.242
10.483,0,0,-0.088,1.462,0.325,-0.475,8.235,2.081,0.230,-6.036,7.630,0.0000000,0.0000000,0.000,0.000,0.000,0.000,0,00:00:00,1007.699,38.784,46.288,-0.108,-9.726,-0.345,-0.029,-0.083,0.083,0.051,-3175.000,1981.000,2634.000,0.660,0.258,-0.667,0.230,3.300,8.250
10.684,0,0,-0.115,1.868,0.454,-0.436,6.262,3.283,-0.031,-6.165,7.550,0.0000000,0.0000000,0.000,0.000,0.000,0.000,0,00:00:00,1007.695,38.768,46.324,-0.072,-9.740,-0.215,0.302,-0.009,-0.023,0.058,-3195.000,1932.000,2654.000,0.655,0.251,-0.672,0.238,3.294,8.234
10.885,0,0,-0.122,1.873,0.673,-0.315,4.319,4.399,0.365,-5.975,7.668,0.0000000,0.0000000,0.000,0.000,0.000,0.000,0,00:00:00,1007.690,38.772,46.363,-0.033,-9.711,-0.546,-0.151,-0.062,0.051,-0.019,-3160.000,2007.000,2556.000,0.658,0.263,-0.665,0.234,3.252,8.129
11.086,0,0,-0.113,1.632,0.930,-0.229,2.486,5.407,0.202,-5.888,7.808,0.0000000,0.0000000,0.000,0.000,0.000,0.000,0,00:00:00,1007.686,38.778,46.398,0.002,-9.769,-0.481,0.122,0.119,-0.058,0.038,-2972.000,1913.000,2683.000,0.656,0.254,-0.673,0.228,3.281,8.202
11.287,0,0,-0.095,1.251,1.283,-0.136,0.788,6.337,0.278,-5.967,7.804,0.0000000,0.0000000,0.000,0.000,0.000,0.000,0,00:00:00,1007.659,38.769,46.624,0.228,-9.819,-0.409,0.036,0.006,-0.068,0.070,-3006.000,1933.000,2731.000,0.656,0.251,-0.673,0.231,3.294,8.234
11.488,0,0,-0.074,0.803,1.624,-0.070,-0.712,7.143,0.179,-5.863,7.904,0.0000000,0.0000000,0.000,0.000,0.000,0.000,0,00:00:00,1007.647,38.780,46.729,0.333,-9.833,-0.381,0.208,0.087,0.028,-0.092,-2991.000,1944.000,2684.000,0.656,0.248,-0.677,0.221,3.223,8.056
11.689,0,0,-0.051,0.339,1.833,0.013,-1.993,7.745,0.310,-5.702,7.949,0.0000000,0.0000000,0.000,0.000,0.000,0.000,0,00:00:00,1007.663,38.782,46.590,0.193,-9.776,-0.474,-0.014,0.028,0.026,0.013,-3142.000,1979.000,2708.000,0.661,0.248,-0.674,0.218,3.258,8.145
11.890,0,0,-0.029,-0.110,2.022,0.048,-3.095,8.243,0.118,-5.700,7.927,0.0000000,0.0000000,0.000,0.000,0.000,0.000,0,00:00:00,1007.660,38.794,46.621,0.218,-9.754,-0.424,0.129,0.019,0.081,0.023,-3165.000,1997.000,2632.000,0.663,0.245,-0.673,0.217,3.248,8.121
12.091,0,0,-0.012,-0.531,2.121,0.052,-4.094,8.593,-0.003,-6.028,7.868,0.0000000,0.0000000,0.000,0.000,0.000,0.000,0,00:00:00,1007.678,38.794,46.467,0.093,-9.905,-0.323,0.165,-0.100,0.094,0.092,-3058.000,1936.000,2728.000,0.663,0.247,-0.669,0.228,3.219,8.048
12.292,0,0,0.001,-0.915,2.190,0.084,-4.911,8.847,0.160,-5.889,7.747,0.0000000,0.0000000,0.000,0.000,0.000,0.000,0,00:00:00,1007.685,38.798,46.407,0.046,-9.726,-0.359,0.036,-0.004,0.000,0.011,-3167.000,2002.000,2654.000,0.662,0.248,-0.670,0.228,3.300,8.250
12.493,0,0,0.015,-1.253,2.394,0.132,-5.544,9.201,0.271,-5.650,7.952,0.0000000,0.0000000,0.000,0.000,0.000,0.000,0,00:00:00,1007.651,38.806,46.692,0.346,-9.740,-0.582,0.158,0.047,-0.038,-0.124,-2951.000,1930.000,2690.000,0.656,0.253,-0.678,0.217,3.216,8.040
12.694,0,0,0.030,-1.540,2.557,0.184,-6.035,9.508,0.318,-5.515,8.136,0.0000000,0.0000000,0.000,0.000,0.000,0.000,0,00:00:00,1007.650,38.802,46.704,0.371,-9.826,-0.381,0.065,0.209,0.081,-0.164,-3085.000,1931.000,2744.000,0.663,0.242,-0.680,0.199,3.294,8.234
12.895,0,0,0.045,-1.780,2.632,0.226,-6.438,9.678,0.298,-5.559,7.980,0.0000000,0.0000000,0.000,0.000,0.000,0.000,0,00:00:00,1007.662,38.797,46.602,0.272,-9.726,-0.302,0.036,-0.026,0.006,-0.085,-2969.000,1927.000,2655.000,0.664,0.241,-0.678,0.204,3.271,8.177
13.096,0,0,0.060,-1.976,2.706,0.259,-6.700,9.869,0.281,-5.249,8.223,0.0000000,0.0000000,0.000,0.000,0.000,0.000,0,00:00:00,1007.657,38.792,46.639,0.300,-9.733,-0.718,0.122,-0.009,-0.045,0.070,-3128.000,1994.000,2661.000,0.660,0.241,-0.681,0.205,3.242,8.105
13.297,0,0,0.070,-2.132,2.725,0.242,-6.927,9.979,0.056,-5.385,8.148,0.0000000,0.0000000,0.000,0.000,0.000,0.000,0,00:00:00,1007.664,38.804,46.580,0.211,-9.747,-0.546,0.302,0.009,0.098,0.083,-2965.000,1869.000,2609.000,0.662,0.237,-0.680,0.207,3.258,8.145
13.498,0,0,0.078,-2.265,2.687,0.272,-7.214,9.947,0.308,-5.947,7.692,0.0000000,0.0000000,0.000,0.000,0.000,0.000,0,00:00:00,1007.675,38.811,46.494,0.091,-9.726,0.007,-0.180,-0.089,-0.038,0.026,-3004.000,1901.000,2622.000,0.667,0.236,-0.672,0.221,3.219,8.048
13.699,0,0,0.084,-2.387,2.664,0.261,-7.517,9.889,0.112,-6.272,7.470,0.0000000,0.0000000,0.000,0.000,0.000,0.000,0,00:00:00,1007.672,38.811,46.518,0.097,-9.747,0.280,-0.266,-0.060,0.055,-0.021,-3042.000,1856.000,2546.000,0.674,0.234,-0.661,0.231,3.239,8.097
16.993,0,0,0.426,-36.568,42.243,-0.067,-12.096,10.231,-0.048,-5.844,7.814,0.0000000,0.0000000,0.000,0.000,0.000,0.000,0,00:00:00,1007.626,38.835,46.905,0.452,-9.754,-0.230,0.129,0.021,-0.053,0.002,-4939.000,542.000,1833.000,0.666,0.234,-0.670,0.228,3.142,7.855
17.194,0,0,0.037,-3.455,2.788,-0.147,-3.762,0.408,0.101,-5.609,7.933,0.0000000,0.0000000,0.000,0.000,0.000,0.000,0,00:00:00,1007.623,38.843,46.923,0.456,-9.704,-0.481,0.000,0.002,0.023,0.104,-4923.000,639.000,1863.000,0.666,0.238,-0.670,0.224,3.087,7.718
17.395,0,0,0.005,-2.046,1.540,-0.107,-4.372,1.598,0.205,-5.894,7.810,0.0000000,0.0000000,0.000,0.000,0.000,0.000,0,00:00:00,1007.633,38.851,46.844,0.363,-9.783,-0.266,-0.007,-0.045,0.036,-0.164,-4775.000,623.000,1805.000,0.664,0.248,-0.670,0.220,3.155,7.887
17.596,0,0,-0.008,-1.800,1.216,-0.076,-5.232,2.922,0.146,-5.924,7.722,0.0000000,0.0000000,0.000,0.000,0.000,0.000,0,00:00:00,1007.641,38.853,46.777,0.255,-9.733,-0.101,-0.057,0.045,0.017,0.013,-4766.000,634.000,1777.000,0.668,0.240,-0.669,0.222,3.232,8.081
17.797,0,0,-0.014,-1.898,1.302,-0.065,-6.105,4.219,0.045,-6.008,7.597,0.0000000,0.0000000,0.000,0.000,0.000,0.000,0,00:00:00,1007.618,38.857,46.968,0.409,-9.682,-0.230,-0.093,-0.143,0.104,0.077,-4700.000,605.000,1807.000,0.669,0.248,-0.661,0.233,3.158,7.895
17.998,0,0,-0.019,-2.131,1.486,-0.071,-6.893,5.445,-0.051,-6.005,7.871,0.0000000,0.0000000,0.000,0.000,0.000,0.000,0,00:00:00,1007.624,38.860,46.918,0.334,-9.898,-0.136,0.180,0.138,-0.026,-0.032,-4887.000,611.000,1769.000,0.665,0.237,-0.671,0.225,3.232,8.081
18.199,0,0,-0.020,-2.397,1.743,-0.046,-7.492,6.527,0.103,-5.693,7.912,0.0000000,0.0000000,0.000,0.000,0.000,0.000,0,00:00:00,1007.617,38.852,46.980,0.373,-9.740,-0.381,0.000,0.013,0.004,0.117,-4907.000,650.000,1846.000,0.666,0.236,-0.671,0.225,3.181,7.952
18.400,0,0,-0.020,-2.641,1.978,-0.045,-7.986,7.397,-0.022,-5.898,7.838,0.0000000,0.0000000,0.000,0.000,0.000,0.000,0,00:00:00,1007.622,38.859,46.934,0.331,-9.805,-0.294,0.093,-0.062,0.043,0.126,-4918.000,613.000,1873.000,0.666,0.238,-0.669,0.231,3.213,8.032
18.601,0,0,-0.019,-2.840,2.242,-0.038,-8.342,8.108,0.011,-5.941,7.777,0.0000000,0.0000000,0.000,0.000,0.000,0.000,0,00:00:00,1007.610,38.871,47.039,0.459,-9.783,-0.230,0.129,-0.004,0.062,-0.053,-4919.000,622.000,1838.000,0.664,0.242,-0.670,0.227,3.226,8.065
18.802,0,0,-0.016,-2.986,2.336,-0.019,-8.577,8.549,0.069,-5.973,7.669,0.0000000,0.0000000,0.000,0.000,0.000,0.000,0,00:00:00,1007.640,38.868,46.781,0.209,-9.718,-0.194,0.115,-0.030,-0.011,-0.002,-4763.000,625.000,1902.000,0.661,0.243,-0.671,0.230,3.148,7.871
19.003,0,0,-0.011,-3.081,2.388,0.012,-8.700,8.878,0.132,-5.922,7.746,0.0000000,0.0000000,0.000,0.000,0.000,0.000,0,00:00:00,1007.645,38.861,46.739,0.138,-9.747,-0.251,-0.115,0.017,-0.043,0.234,-4890.000,607.000,1879.000,0.666,0.235,-0.667,0.236,3.184,7.960
19.204,0,0,-0.003,-3.134,2.450,0.045,-8.765,9.136,0.162,-5.999,7.727,0.0000000,0.0000000,0.000,0.000,0.000,0.000,0,00:00:00,1007.637,38.871,46.812,0.166,-9.783,-0.108,-0.043,0.036,-0.028,-0.121,-4752.000,593.000,1856.000,0.665,0.239,-0.670,0.227,3.206,8.016
19.405,0,0,0.007,-3.156,2.476,0.088,-8.755,9.351,0.225,-5.862,7.921,0.0000000,0.0000000,0.000,0.000,0.000,0.000,0,00:00:00,1007.639,38.873,46.794,0.103,-9.855,-0.180,0.050,0.081,-0.119,-0.081,-4779.000,553.000,1931.000,0.661,0.234,-0.678,0.221,3.181,7.952
19.606,0,0,0.021,-3.149,2.494,0.170,-8.639,9.535,0.447,-5.464,8.021,0.0000000,0.0000000,0.000,0.000,0.000,0.000,0,00:00:00,1007.641,38.859,46.772,0.074,-9.704,-0.460,-0.122,0.049,-0.083,-0.083,-4716.000,585.000,1983.000,0.662,0.238,-0.679,0.211,3.129,7.823
19.807,0,0,0.037,-3.124,2.540,0.191,-8.549,9.693,0.174,-5.627,7.969,0.0000000,0.0000000,0.000,0.000,0.000,0.000,0,00:00:00,1007.633,38.870,46.845,0.120,-9.754,-0.194,0.122,0.058,-0.032,0.004,-4915.000,572.000,1899.000,0.663,0.230,-0.680,0.212,3.158,7.895
20.008,0,0,0.051,-3.091,2.673,0.236,-8.465,9.894,0.327,-5.657,8.008,0.0000000,0.0000000,0.000,0.000,0.000,0.000,0,00:00:00,1007.604,38.876,47.083,0.326,-9.805,-0.309,-0.108,-0.060,-0.023,-0.013,-4781.000,572.000,1907.000,0.665,0.235,-0.675,0.214,3.197,7.992
20.209,0,0,0.064,-3.057,2.685,0.253,-8.410,9.953,0.211,-5.772,7.890,0.0000000,0.0000000,0.000,0.000,0.000,0.000,0,00:00:00,1007.621,38.866,46.945,0.154,-9.776,-0.208,0.057,-0.028,-0.100,0.011,-4780.000,548.000,1879.000,0.662,0.234,-0.678,0.220,3.145,7.863
20.410,0,0,0.074,-3.027,2.560,0.268,-8.368,9.892,0.222,-5.798,7.826,0.0000000,0.0000000,0.000,0.000,0.000,0.000,0,00:00:00,1007.652,38.868,46.684,-0.142,-9.740,-0.187,0.086,-0.019,-0.058,-0.068,-4800.000,613.000,1834.000,0.660,0.236,-0.678,0.220,3.255,8.137
20.611,0,0,0.085,-2.998,2.529,0.313,-8.286,9.923,0.388,-5.555,7.925,0.0000000,0.0000000,0.000,0.000,0.000,0.000,0,00:00:00,1007.634,38.874,46.833,-0.048,-9.675,-0.417,-0.172,0.006,0.049,-0.096,-4751.000,594.000,1843.000,0.666,0.244,-0.673,0.212,3.258,8.145
20.812,0,0,0.093,-2.971,2.627,0.295,-8.250,10.041,0.096,-5.740,7.924,0.0000000,0.0000000,0.000,0.000,0.000,0.000,0,00:00:00,1007.602,38.883,47.103,0.196,-9.783,-0.187,0.029,0.047,0.023,0.064,-4888.000,606.000,1919.000,0.669,0.234,-0.672,0.215,3.148,7.871
21.013,0,0,0.095,-2.949,2.775,0.264,-8.218,10.172,0.036,-5.723,7.894,0.0000000,0.0000000,0.000,0.000,0.000,0.000,0,00:00:00,1007.582,38.879,47.267,0.377,-9.747,-0.244,0.029,-0.032,0.009,0.128,-4851.000,575.000,1902.000,0.669,0.231,-0.671,0.222,3.235,8.089
21.214,0,0,0.094,-2.931,2.929,0.254,-8.199,10.269,0.135,-5.754,7.792,0.0000000,0.0000000,0.000,0.000,0.000,0.000,0,00:00:00,1007.568,38.880,47.389,0.509,-9.682,-0.287,-0.057,-0.068,0.015,0.009,-4931.000,606.000,1916.000,0.668,0.238,-0.669,0.224,3.171,7.927
21.415,0,0,0.091,-2.919,3.075,0.236,-8.202,10.373,0.094,-5.838,7.930,0.0000000,0.0000000,0.000,0.000,0.000,0.000,0,00:00:00,1007.555,38.888,47.496,0.621,-9.841,-0.388,-0.029,-0.043,0.053,0.060,-4722.000,561.000,1944.000,0.668,0.243,-0.667,0.225,3.226,8.065
21.616,0,0,0.086,-2.914,3.165,0.200,-8.243,10.363,-0.008,-6.017,7.624,0.0000000,0.0000000,0.000,0.000,0.000,0.000,0,00:00:00,1007.554,38.892,47.501,0.627,-9.711,-0.079,0.093,-0.011,0.006,0.011,-4780.000,608.000,1930.000,0.665,0.240,-0.669,0.229,3.242,8.105
21.817,0,0,0.081,-2.916,3.134,0.209,-8.297,10.274,0.206,-6.092,7.660,0.0000000,0.0000000,0.000,0.000,0.000,0.000,0,00:00:00,1007.576,38.889,47.317,0.455,-9.783,-0.223,-0.266,-0.094,-0.023,0.143,-4752.000,569.000,1930.000,0.668,0.244,-0.662,0.238,3.165,7.911
22.018,0,0,0.076,-2.929,3.213,0.167,-8.406,10.239,-0.055,-6.385,7.452,0.0000000,0.0000000,0.000,0.000,0.000,0.000,0,00:00:00,1007.546,38.890,47.568,0.690,-9.812,0.115,0.136,-0.009,-0.019,-0.128,-4757.000,557.000,1903.000,0.662,0.244,-0.667,0.239,3.187,7.968
22.219,0,0,0.074,-2.940,3.294,0.243,-8.362,10.301,0.524,-5.652,7.938,0.0000000,0.0000000,0.000,0.000,0.000,0.000,0,00:00:00,1007.537,38.893,47.645,0.771,-9.718,-0.790,-0.388,-0.032,0.096,-0.181,-4920.000,627.000,1848.000,0.665,0.268,-0.662,0.219,3.245,8.113
22.420,0,0,0.082,-2.943,3.229,0.291,-8.326,10.235,0.405,-5.696,7.871,0.0000000,0.0000000,0.000,0.000,0.000,0.000,0,00:00:00,1007.570,38.896,47.368,0.518,-9.697,-0.654,-0.309,0.030,0.070,-0.021,-4911.000,672.000,1774.000,0.668,0.268,-0.660,0.214,3.155,7.887
22.621,0,0,0.086,-2.947,3.211,0.233,-8.395,10.169,-0.118,-6.225,7.627,0.0000000,0.0000000,0.000,0.000,0.000,0.000,0,00:00:00,1007.566,38.898,47.407,0.578,-9.833,-0.280,0.409,-0.083,0.017,0.011,-4865.000,645.000,1871.000,0.657,0.262,-0.668,0.231,3.219,8.048
22.822,0,0,0.084,-2.956,3.057,0.231,-8.442,10.007,0.156,-6.132,7.590,0.0000000,0.0000000,0.000,0.000,0.000,0.000,0,00:00:00,1007.597,38.904,47.143,0.282,-9.754,-0.223,0.180,0.047,0.006,-0.089,-4747.000,584.000,1848.000,0.656,0.257,-0.672,0.230,3.200,8.000
23.023,0,0,0.086,-2.971,3.069,0.279,-8.523,9.968,0.414,-6.332,7.487,0.0000000,0.0000000,0.000,0.000,0.000,0.000,0,00:00:00,1007.561,38.906,47.442,0.528,-9.812,-0.093,-0.201,-0.051,0.019,-0.164,-4746.000,616.000,1877.000,0.660,0.262,-0.665,0.231,3.177,7.944
23.224,0,0,0.096,-2.982,3.096,0.353,-8.473,10.018,0.554,-5.706,7.871,0.0000000,0.0000000,0.000,0.000,0.000,0.000,0,00:00:00,1007.549,38.907,47.545,0.574,-9.704,-0.532,-0.611,0.134,0.085,-0.006,-4717.000,627.000,1817.000,0.674,0.259,-0.657,0.216,3.148,7.871
23.425,0,0,0.113,-2.974,3.244,0.453,-8.288,10.254,0.726,-5.015,8.444,0.0000000,0.0000000,0.000,0.000,0.000,0.000,0,00:00:00,1007.509,38.913,47.881,0.839,-9.754,-1.128,-0.747,0.141,-0.075,0.009,-4748.000,632.000,1867.000,0.676,0.262,-0.660,0.195,3.252,8.129
23.626,0,0,0.125,-2.958,3.125,0.379,-8.298,10.139,-0.120,-5.955,7.775,0.0000000,0.0000000,0.000,0.000,0.000,0.000,0,00:00:00,1007.557,38.908,47.480,0.365,-9.790,-0.230,0.136,-0.100,-0.002,0.245,-4862.000,694.000,1878.000,0.670,0.246,-0.664,0.223,3.255,8.137
23.827,0,0,0.126,-2.953,3.002,0.343,-8.382,9.978,0.074,-6.308,7.450,0.0000000,0.0000000,0.000,0.000,0.000,0.000,0,00:00:00,1007.562,38.913,47.435,0.273,-9.762,-0.065,-0.065,-0.164,0.019,-0.028,-4882.000,660.000,1757.000,0.666,0.254,-0.660,0.237,3.255,8.137
24.028,0,0,0.123,-2.960,2.830,0.328,-8.450,9.840,0.168,-6.250,7.641,0.0000000,0.0000000,0.000,0.000,0.000,0.000,0,00:00:00,1007.580,38.927,47.287,0.077,-9.869,-0.230,-0.115,0.000,0.060,-0.109,-4834.000,616.000,1890.000,0.665,0.259,-0.660,0.232,3.219,8.048
24.229,0,0,0.127,-2.965,2.693,0.436,-8.384,9.804,0.793,-5.591,7.945,0.0000000,0.0000000,0.000,0.000,0.000,0.000,0,00:00:00,1007.580,38.919,47.285,0.005,-9.647,-1.049,-0.919,-0.107,0.107,-0.036,-4856.000,723.000,1847.000,0.673,0.285,-0.646,0.219,3.255,8.137
24.430,0,0,0.132,-2.973,2.573,0.364,-8.532,9.654,-0.094,-6.668,7.239,0.0000000,0.0000000,0.000,0.000,0.000,0.000,0,00:00:00,1007.581,38.925,47.280,-0.068,-9.841,-0.180,0.079,-0.166,0.045,0.083,-4713.000,637.000,1821.000,0.663,0.279,-0.649,0.246,3.132,7.831
24.631,0,0,0.128,-2.998,2.472,0.322,-8.696,9.488,0.048,-6.799,6.966,0.0000000,0.0000000,0.000,0.000,0.000,0.000,0,00:00:00,1007.578,38.919,47.301,-0.105,-9.733,-0.144,0.022,-0.130,-0.032,0.006,-4719.000,624.000,1887.000,0.654,0.281,-0.652,0.262,3.177,7.944
24.832,0,0,0.120,-3.035,2.512,0.272,-8.849,9.444,-0.008,-6.821,6.949,0.0000000,0.0000000,0.000,0.000,0.000,0.000,0,00:00:00,1007.548,38.931,47.552,0.142,-9.733,-0.287,-0.057,-0.092,0.117,0.143,-4731.000,637.000,1936.000,0.656,0.284,-0.645,0.270,3.248,8.121
25.033,0,0,0.119,-3.069,2.447,0.386,-8.874,9.438,0.801,-6.247,7.520,0.0000000,0.0000000,0.000,0.000,0.000,0.000,0,00:00:00,1007.569,38.926,47.377,-0.051,-9.733,-1.013,-0.690,0.019,-0.094,-0.036,-4891.000,701.000,1808.000,0.654,0.301,-0.647,0.251,3.261,8.153
25.234,0,0,0.124,-3.098,2.348,0.366,-8.959,9.316,0.147,-6.607,7.028,0.0000000,0.0000000,0.000,0.000,0.000,0.000,0,00:00:00,1007.582,38.932,47.267,-0.176,-9.632,-0.532,-0.043,-0.047,0.051,0.149,-4886.000,738.000,1754.000,0.652,0.296,-0.647,0.261,3.171,7.927
25.435,0,0,0.126,-3.132,2.271,0.364,-9.104,9.221,0.240,-6.972,6.995,0.0000000,0.0000000,0.000,0.000,0.000,0.000,0,00:00:00,1007.580,38.931,47.284,-0.198,-9.876,-0.093,-0.201,0.081,0.034,-0.051,-4723.000,647.000,1817.000,0.656,0.287,-0.648,0.259,3.252,8.129
25.636,0,0,0.129,-3.165,2.212,0.397,-9.155,9.185,0.426,-6.572,7.165,0.0000000,0.0000000,0.000,0.000,0.000,0.000,0,00:00:00,1007.583,38.937,47.263,-0.217,-9.711,-0.381,-0.510,0.051,0.004,0.053,-4893.000,696.000,1774.000,0.662,0.285,-0.644,0.255,3.248,8.121
25.837,0,0,0.135,-3.190,2.204,0.437,-9.149,9.265,0.466,-6.335,7.564,0.0000000,0.0000000,0.000,0.000,0.000,0.000,0,00:00:00,1007.575,38.930,47.325,-0.166,-9.833,-0.804,-0.467,0.004,0.030,0.009,-4715.000,642.000,1799.000,0.661,0.294,-0.646,0.245,3.158,7.895
25,0.104,0.201,0.890,3.135,7.839
1653.552,6,6,1.533,4.702,-4.609,4.295,13.289,-0.925,2.803,9.410,-0.727,0.0000000,0.0000000,0.000,0.000,0.000,0.000,0,00:00:00,1008.154,43.041,42.488,-4.366,-0.165,7.398,6.493,0.032,-0.004,-0.115,-151.000,-3116.000,4865.000,0.399,0.103,0.193,0.891,3.142,7.855
1653.753,6,6,1.521,4.700,-4.594,4.206,13.304,-0.964,2.596,9.452,-0.978,0.0000000,0.0000000,0.000,0.000,0.000,0.000,0,00:00:00,1008.150,43.031,42.520,-4.334,-0.136,7.463,6.429,0.026,-0.134,-0.168,-163.000,-3110.000,4886.000,0.405,0.093,0.174,0.893,3.110,7.774
1653.954,6,6,1.504,4.700,-4.610,4.136,13.302,-1.028,2.652,9.374,-1.027,0.0000000,0.0000000,0.000,0.000,0.000,0.000,0,00:00:00,1008.155,43.033,42.478,-4.376,-0.136,7.427,6.386,0.011,-0.017,0.030,-147.000,-3174.000,4921.000,0.407,0.090,0.177,0.892,3.158,7.895
1654.155,6,6,1.487,4.700,-4.629,4.108,13.316,-1.053,2.830,9.450,-0.858,0.0000000,0.0000000,0.000,0.000,0.000,0.000,0,00:00:00,1008.157,43.036,42.468,-4.386,-0.144,7.398,6.580,0.079,0.019,0.130,15.000,-3153.000,4880.000,0.407,0.090,0.187,0.890,3.081,7.702
1654.356,6,6,1.471,4.702,-4.653,4.063,13.319,-1.079,2.708,9.396,-0.861,0.0000000,0.0000000,0.000,0.000,0.000,0.000,0,00:00:00,1008.160,43.036,42.443,-4.411,-0.172,7.391,6.457,-0.062,-0.034,-0.028,-52.000,-3159.000,4903.000,0.403,0.089,0.183,0.892,3.142,7.855
1654.557,6,6,1.456,4.702,-4.671,4.039,13.317,-1.118,2.787,9.377,-0.975,0.0000000,0.0000000,0.000,0.000,0.000,0.000,0,00:00:00,1008.160,43.039,42.440,-4.413,-0.151,7.449,6.414,-0.036,-0.128,0.089,-101.000,-3127.000,4809.000,0.405,0.082,0.182,0.892,3.181,7.952
1654.758,6,6,1.443,4.702,-4.660,3.997,13.308,-1.111,2.672,9.340,-0.870,0.0000000,0.0000000,0.000,0.000,0.000,0.000,0,00:00:00,1008.154,43.034,42.494,-4.360,-0.101,7.341,6.421,-0.011,0.006,-0.062,-106.000,-3103.000,4822.000,0.404,0.085,0.177,0.894,3.152,7.879
1654.959,6,6,1.432,4.702,-4.659,4.001,13.308,-1.085,2.878,9.387,-0.723,0.0000000,0.0000000,0.000,0.000,0.000,0.000,0,00:00:00,1008.156,43.035,42.477,-4.377,-0.108,7.398,6.493,-0.113,0.034,0.126,-121.000,-3114.000,4791.000,0.398,0.086,0.188,0.894,3.165,7.911
1655.160,6,6,1.426,4.702,-4.670,4.012,13.315,-1.097,2.903,9.415,-0.858,0.0000000,0.0000000,0.000,0.000,0.000,0.000,0,00:00:00,1008.159,43.029,42.448,-4.406,-0.208,7.456,6.493,0.030,0.000,0.109,-148.000,-3106.000,4814.000,0.402,0.090,0.194,0.890,3.155,7.887
1655.361,6,6,1.424,4.703,-4.678,4.027,13.325,-1.105,2.914,9.440,-0.862,0.0000000,0.0000000,0.000,0.000,0.000,0.000,0,00:00:00,1008.159,43.029,42.448,-4.406,-0.180,7.456,6.536,0.072,0.038,0.006,-125.000,-3150.000,4927.000,0.405,0.096,0.195,0.888,3.126,7.815
1655.562,6,6,1.425,4.704,-4.705,4.057,13.324,-1.145,2.992,9.381,-0.965,0.0000000,0.0000000,0.000,0.000,0.000,0.000,0,00:00:00,1008.164,43.026,42.402,-4.452,-0.129,7.470,6.486,0.051,-0.098,0.062,-132.000,-3122.000,4837.000,0.408,0.090,0.194,0.888,3.155,7.887
1655.763,6,6,1.427,4.704,-4.721,4.040,13.311,-1.159,2.765,9.327,-0.901,0.0000000,0.0000000,0.000,0.000,0.000,0.000,0,00:00:00,1008.164,43.039,42.408,-4.446,-0.108,7.362,6.421,0.000,-0.009,-0.121,-136.000,-3112.000,4898.000,0.405,0.092,0.184,0.891,3.135,7.839
1655.964,6,6,1.424,4.703,-4.730,3.999,13.309,-1.137,2.639,9.376,-0.743,0.0000000,0.0000000,0.000,0.000,0.000,0.000,0,00:00:00,1008.164,43.030,42.407,-4.447,-0.101,7.298,6.493,-0.030,-0.032,-0.075,-10.000,-3141.000,4827.000,0.402,0.089,0.178,0.894,3.171,7.927
1656.165,6,6,1.416,4.704,-4.704,3.942,13.329,-1.148,2.541,9.484,-1.039,0.0000000,0.0000000,0.000,0.000,0.000,0.000,0,00:00:00,1008.156,43.026,42.475,-4.379,-0.187,7.485,6.436,0.038,0.000,-0.060,47.000,-3154.000,4847.000,0.406,0.091,0.172,0.893,3.084,7.710
1656.366,6,6,1.404,4.705,-4.698,3.883,13.325,-1.154,2.509,9.371,-0.944,0.0000000,0.0000000,0.000,0.000,0.000,0.000,0,00:00:00,1008.158,43.036,42.459,-4.395,-0.108,7.362,6.386,-0.049,-0.040,-0.051,-37.000,-3127.000,4814.000,0.404,0.086,0.168,0.895,3.132,7.831
1656.567,6,6,1.391,4.705,-4.699,3.861,13.320,-1.166,2.667,9.367,-0.950,0.0000000,0.0000000,0.000,0.000,0.000,0.000,0,00:00:00,1008.159,43.038,42.450,-4.404,-0.172,7.413,6.386,-0.053,0.038,0.126,-124.000,-3127.000,4813.000,0.403,0.087,0.179,0.893,3.181,7.952
1656.768,6,6,1.380,4.704,-4.688,3.842,13.312,-1.176,2.658,9.353,-1.000,0.0000000,0.0000000,0.000,0.000,0.000,0.000,0,00:00:00,1008.155,43.040,42.480,-4.374,-0.230,7.391,6.393,0.049,0.017,0.060,-112.000,-3138.000,4934.000,0.406,0.091,0.183,0.891,3.152,7.879
1656.969,6,6,1.369,4.705,-4.671,3.811,13.336,-1.163,2.579,9.510,-0.902,0.0000000,0.0000000,0.000,0.000,0.000,0.000,0,00:00:00,1008.152,43.042,42.503,-4.351,-0.194,7.413,6.551,0.038,-0.049,-0.049,-141.000,-3101.000,4834.000,0.406,0.090,0.176,0.892,3.194,7.984
1657.170,6,6,1.360,4.708,-4.651,3.790,13.350,-1.154,2.611,9.466,-0.926,0.0000000,0.0000000,0.000,0.000,0.000,0.000,0,00:00:00,1008.150,43.026,42.524,-4.330,-0.165,7.441,6.472,-0.002,0.083,-0.043,-121.000,-3099.000,4801.000,0.404,0.095,0.178,0.892,3.161,7.903
1657.371,6,6,1.353,4.709,-4.633,3.806,13.323,-1.147,2.783,9.260,-0.924,0.0000000,0.0000000,0.000,0.000,0.000,0.000,0,00:00:00,1008.148,43.029,42.538,-4.316,-0.079,7.362,6.335,-0.017,0.062,0.019,34.000,-3209.000,4783.000,0.404,0.095,0.184,0.891,3.106,7.766
1657.572,6,6,1.351,4.708,-4.614,3.824,13.328,-1.130,2.785,9.423,-0.871,0.0000000,0.0000000,0.000,0.000,0.000,0.000,0,00:00:00,1008.146,43.026,42.556,-4.298,-0.165,7.406,6.515,0.055,0.019,0.034,57.000,-3162.000,4866.000,0.405,0.095,0.188,0.890,3.177,7.944
1657.773,6,6,1.351,4.707,-4.616,3.822,13.321,-1.128,2.686,9.363,-0.856,0.0000000,0.0000000,0.000,0.000,0.000,0.000,0,00:00:00,1008.150,43.026,42.524,-4.330,-0.151,7.341,6.457,0.066,0.092,-0.104,13.000,-3105.000,4796.000,0.405,0.101,0.185,0.890,3.139,7.847
1657.974,6,6,1.351,4.707,-4.631,3.837,13.330,-1.178,2.770,9.436,-1.084,0.0000000,0.0000000,0.000,0.000,0.000,0.000,0,00:00:00,1008.153,43.026,42.499,-4.355,-0.180,7.506,6.443,0.070,-0.040,0.021,50.000,-3174.000,4934.000,0.409,0.096,0.185,0.888,3.152,7.879
1658.175,6,6,1.355,4.707,-4.664,3.878,13.325,-1.230,2.909,9.372,-1.064,0.0000000,0.0000000,0.000,0.000,0.000,0.000,0,00:00:00,1008.158,43.019,42.457,-4.397,-0.165,7.506,6.407,-0.002,0.023,0.072,-151.000,-3128.000,4823.000,0.408,0.096,0.192,0.887,3.106,7.766
1658.376,6,6,1.363,4.707,-4.688,3.917,13.323,-1.228,2.916,9.384,-0.848,0.0000000,0.0000000,0.000,0.000,0.000,0.000,0,00:00:00,1008.159,43.016,42.450,-4.404,-0.136,7.441,6.472,-0.040,0.077,-0.028,-137.000,-3109.000,4910.000,0.403,0.100,0.195,0.889,3.177,7.944
1658.577,6,6,1.373,4.706,-4.714,3.961,13.319,-1.219,2.963,9.375,-0.798,0.0000000,0.0000000,0.000,0.000,0.000,0.000,0,00:00:00,1008.162,43.014,42.419,-4.435,-0.172,7.449,6.465,-0.045,0.058,0.021,28.000,-3197.000,4876.000,0.400,0.102,0.200,0.888,3.087,7.718
1658.778,6,6,1.384,4.706,-4.701,3.982,13.319,-1.212,2.866,9.392,-0.957,0.0000000,0.0000000,0.000,0.000,0.000,0.000,0,00:00:00,1008.155,43.018,42.481,-4.373,-0.180,7.470,6.443,0.068,-0.036,-0.064,-16.000,-3177.000,4888.000,0.406,0.101,0.193,0.888,3.097,7.742
1658.979,6,6,1.392,4.707,-4.691,3.978,13.340,-1.191,2.759,9.496,-0.862,0.0000000,0.0000000,0.000,0.000,0.000,0.000,0,00:00:00,1008.155,43.017,42.482,-4.372,-0.144,7.463,6.544,0.026,0.021,-0.124,-9.000,-3201.000,4930.000,0.404,0.101,0.186,0.890,3.103,7.758
1659.180,6,6,1.398,4.709,-4.678,4.004,13.347,-1.162,2.919,9.436,-0.817,0.0000000,0.0000000,0.000,0.000,0.000,0.000,0,00:00:00,1008.154,43.024,42.493,-4.361,-0.151,7.449,6.536,0.011,0.030,0.079,16.000,-3195.000,4868.000,0.403,0.099,0.195,0.889,3.174,7.935
1659.381,6,6,1.407,4.709,-4.665,4.053,13.312,-1.120,3.051,9.220,-0.726,0.0000000,0.0000000,0.000,0.000,0.000,0.000,0,00:00:00,1008.153,43.016,42.499,-4.355,-0.108,7.334,6.407,-0.040,0.060,0.060,-175.000,-3125.000,4872.000,0.400,0.100,0.204,0.888,3.097,7.742
1659.582,6,6,1.419,4.705,-4.642,4.099,13.294,-1.105,3.064,9.304,-0.872,0.0000000,0.0000000,0.000,0.000,0.000,0.000,0,00:00:00,1008.150,43.004,42.525,-4.329,-0.165,7.434,6.436,0.034,-0.049,0.043,-190.000,-3148.000,4735.000,0.404,0.098,0.204,0.886,3.132,7.831
1659.783,6,6,1.431,4.700,-4.612,4.120,13.273,-1.084,2.961,9.276,-0.855,0.0000000,0.0000000,0.000,0.000,0.000,0.000,0,00:00:00,1008.146,43.011,42.560,-4.294,-0.151,7.398,6.386,-0.047,-0.032,-0.045,-177.000,-3102.000,4902.000,0.402,0.097,0.198,0.889,3.097,7.742
1659.984,6,6,1.443,4.695,-4.583,4.172,13.264,-1.048,3.139,9.325,-0.761,0.0000000,0.0000000,0.000,0.000,0.000,0.000,0,00:00:00,1008.143,43.015,42.582,-4.272,-0.136,7.449,6.472,-0.043,0.047,0.085,-148.000,-3124.000,4904.000,0.400,0.099,0.207,0.887,3.184,7.960
1660.185,6,6,1.455,4.692,-4.581,4.191,13.275,-1.069,2.999,9.422,-0.927,0.0000000,0.0000000,0.000,0.000,0.000,0.000,0,00:00:00,1008.147,43.010,42.545,-4.309,-0.180,7.506,6.500,0.119,0.040,-0.089,-43.000,-3144.000,4898.000,0.406,0.106,0.201,0.885,3.097,7.742
1663.543,6,6,20.184,63.127,-9.866,6.192,19.115,-1.495,3.007,9.281,-1.149,0.0000000,0.0000000,0.000,0.000,0.000,0.000,0,00:00:00,1008.137,43.000,42.633,-4.221,-0.194,7.456,6.393,0.141,-0.158,0.094,-8.000,-3132.000,4918.000,0.414,0.096,0.199,0.883,3.090,7.726
1663.744,6,6,1.841,5.753,-4.519,1.686,4.964,-0.158,3.108,9.359,-0.944,0.0000000,0.0000000,0.000,0.000,0.000,0.000,0,00:00:00,1008.136,42.999,42.641,-4.213,-0.180,7.441,6.536,0.079,0.032,0.087,-5.000,-3118.000,4878.000,0.410,0.099,0.206,0.883,3.129,7.823
1663.945,6,6,1.058,3.276,-4.340,1.999,5.924,-0.295,3.015,9.293,-0.970,0.0000000,0.0000000,0.000,0.000,0.000,0.000,0,00:00:00,1008.129,43.002,42.696,-4.157,-0.187,7.449,6.393,-0.006,0.032,-0.051,17.000,-3144.000,4883.000,0.407,0.104,0.203,0.885,3.181,7.952
1664.146,6,6,0.901,2.753,-4.298,2.462,7.297,-0.439,3.122,9.321,-0.883,0.0000000,0.0000000,0.000,0.000,0.000,0.000,0,00:00:00,1008.129,42.998,42.700,-4.154,-0.151,7.463,6.457,0.013,0.026,0.032,-146.000,-3106.000,4899.000,0.405,0.104,0.207,0.884,3.142,7.855
1664.347,6,6,0.933,2.816,-4.306,2.949,8.670,-0.589,3.234,9.280,-0.920,0.0000000,0.0000000,0.000,0.000,0.000,0.000,0,00:00:00,1008.131,42.998,42.683,-4.171,-0.144,7.463,6.457,0.032,-0.104,0.119,-136.000,-3132.000,4868.000,0.407,0.097,0.210,0.884,3.097,7.742
1664.548,6,6,1.045,3.115,-4.358,3.401,9.898,-0.759,3.261,9.135,-1.029,0.0000000,0.0000000,0.000,0.000,0.000,0.000,0,00:00:00,1008.139,43.000,42.617,-4.237,-0.172,7.420,6.328,0.019,-0.128,0.153,-131.000,-3080.000,4903.000,0.409,0.092,0.212,0.882,3.171,7.927
1664.749,6,6,1.181,3.493,-4.390,3.734,10.955,-0.867,2.990,9.197,-0.891,0.0000000,0.0000000,0.000,0.000,0.000,0.000,0,00:00:00,1008.134,43.004,42.655,-4.199,-0.122,7.291,6.414,0.094,-0.040,-0.117,26.000,-3133.000,4927.000,0.409,0.096,0.199,0.885,3.081,7.702
1664.950,6,6,1.309,3.865,-4.423,4.002,11.824,-0.957,3.039,9.350,-0.898,0.0000000,0.0000000,0.000,0.000,0.000,0.000,0,00:00:00,1008.136,43.008,42.643,-4.211,-0.115,7.441,6.486,0.006,-0.030,0.009,-24.000,-3156.000,4906.000,0.407,0.095,0.198,0.887,3.087,7.718
1665.151,6,6,1.412,4.186,-4.459,4.142,12.504,-1.046,2.761,9.518,-0.984,0.0000000,0.0000000,0.000,0.000,0.000,0.000,0,00:00:00,1008.138,43.002,42.624,-4.230,-0.187,7.549,6.493,-0.011,0.015,-0.164,40.000,-3111.000,4851.000,0.405,0.099,0.186,0.890,3.171,7.927
1665.352,6,6,1.480,4.438,-4.452,4.196,12.981,-1.105,2.653,9.510,-1.067,0.0000000,0.0000000,0.000,0.000,0.000,0.000,0,00:00:00,1008.129,42.996,42.701,-4.153,-0.251,7.528,6.472,0.051,-0.006,-0.028,5.000,-3115.000,4868.000,0.407,0.099,0.183,0.889,3.148,7.871
1665.553,6,6,1.518,4.618,-4.469,4.224,13.279,-1.132,2.754,9.442,-0.882,0.0000000,0.0000000,0.000,0.000,0.000,0.000,0,00:00:00,1008.134,42.996,42.660,-4.194,-0.201,7.456,6.472,-0.038,0.104,-0.002,-125.000,-3091.000,4868.000,0.403,0.103,0.190,0.890,3.123,7.806
1665.754,6,6,1.534,4.733,-4.501,4.233,13.448,-1.190,2.821,9.409,-1.031,0.0000000,0.0000000,0.000,0.000,0.000,0.000,0,00:00:00,1008.139,43.001,42.616,-4.238,-0.093,7.528,6.393,-0.017,-0.053,-0.072,-91.000,-3104.000,4754.000,0.406,0.096,0.184,0.890,3.174,7.935
1665.955,6,6,1.540,4.800,-4.460,4.269,13.536,-1.108,3.066,9.431,-0.608,0.0000000,0.0000000,0.000,0.000,0.000,0.000,0,00:00:00,1008.123,43.001,42.746,-4.108,-0.129,7.456,6.565,-0.126,0.194,0.119,-128.000,-3078.000,4870.000,0.396,0.103,0.205,0.889,3.087,7.718
1666.156,6,6,1.542,4.829,-4.451,4.297,13.513,-1.080,3.097,9.142,-0.727,0.0000000,0.0000000,0.000,0.000,0.000,0.000,0,00:00:00,1008.129,43.001,42.697,-4.157,-0.151,7.298,6.357,0.017,-0.032,0.085,-137.000,-3091.000,4873.000,0.400,0.100,0.209,0.887,3.142,7.855
1666.357,6,6,1.544,4.831,-4.463,4.338,13.480,-1.078,3.204,9.238,-0.772,0.0000000,0.0000000,0.000,0.000,0.000,0.000,0,00:00:00,1008.134,43.003,42.655,-4.199,-0.122,7.456,6.371,-0.068,0.083,-0.023,12.000,-3140.000,4977.000,0.399,0.106,0.212,0.886,3.081,7.702
1666.558,6,6,1.548,4.818,-4.493,4.394,13.426,-1.057,3.323,9.199,-0.598,0.0000000,0.0000000,0.000,0.000,0.000,0.000,0,00:00:00,1008.141,42.995,42.597,-4.257,-0.172,7.355,6.472,-0.023,0.017,0.147,43.000,-3113.000,4862.000,0.397,0.105,0.224,0.884,3.106,7.766
1666.759,6,6,1.555,4.797,-4.486,4.438,13.382,-1.047,3.297,9.266,-0.787,0.0000000,0.0000000,0.000,0.000,0.000,0.000,0,00:00:00,1008.135,42.994,42.646,-4.208,-0.158,7.477,6.436,0.051,0.036,-0.068,5.000,-3148.000,4877.000,0.401,0.111,0.219,0.882,3.094,7.734
1666.960,6,6,1.562,4.775,-4.470,4.445,13.350,-1.032,3.135,9.318,-0.790,0.0000000,0.0000000,0.000,0.000,0.000,0.000,0,00:00:00,1008.132,42.992,42.671,-4.182,-0.180,7.434,6.479,0.062,0.000,-0.092,-135.000,-3146.000,4850.000,0.403,0.112,0.213,0.883,3.168,7.919
1667.161,6,6,1.570,4.753,-4.448,4.497,13.280,-1.007,3.379,9.109,-0.748,0.0000000,0.0000000,0.000,0.000,0.000,0.000,0,00:00:00,1008.129,42.994,42.694,-4.160,-0.144,7.384,6.357,-0.009,0.094,0.107,-135.000,-3108.000,4918.000,0.401,0.114,0.227,0.880,3.161,7.903
1667.362,6,6,1.582,4.731,-4.462,4.576,13.253,-1.027,3.549,9.290,-0.829,0.0000000,0.0000000,0.000,0.000,0.000,0.000,0,00:00:00,1008.137,42.987,42.635,-4.219,-0.144,7.607,6.457,0.000,0.053,0.013,-133.000,-3112.000,4805.000,0.402,0.116,0.231,0.878,3.155,7.887
1667.563,6,6,1.600,4.711,-4.450,4.658,13.204,-0.997,3.594,9.150,-0.681,0.0000000,0.0000000,0.000,0.000,0.000,0.000,0,00:00:00,1008.131,42.996,42.678,-4.176,-0.151,7.449,6.450,0.000,0.019,0.081,-156.000,-3118.000,4828.000,0.401,0.116,0.238,0.877,3.116,7.790
1667.764,6,6,1.620,4.691,-4.446,4.712,13.151,-0.988,3.505,9.092,-0.738,0.0000000,0.0000000,0.000,0.000,0.000,0.000,0,00:00:00,1008.133,42.999,42.666,-4.188,-0.180,7.377,6.407,0.087,-0.028,0.006,-93.000,-3142.000,4908.000,0.404,0.116,0.236,0.876,3.077,7.694
1667.965,6,6,1.640,4.673,-4.460,4.772,13.121,-0.980,3.571,9.178,-0.668,0.0000000,0.0000000,0.000,0.000,0.000,0.000,0,00:00:00,1008.137,42.995,42.629,-4.225,-0.194,7.463,6.457,-0.036,0.015,0.036,-107.000,-3098.000,4884.000,0.399,0.117,0.239,0.877,3.168,7.919
1668.166,6,6,1.663,4.657,-4.465,4.862,13.091,-0.947,3.765,9.143,-0.562,0.0000000,0.0000000,0.000,0.000,0.000,0.000,0,00:00:00,1008.137,42.995,42.629,-4.225,-0.151,7.470,6.500,-0.002,0.045,0.098,-137.000,-3117.000,4914.000,0.398,0.119,0.249,0.875,3.177,7.944
1668.367,6,6,1.685,4.643,-4.451,4.907,13.063,-0.911,3.587,9.126,-0.595,0.0000000,0.0000000,0.000,0.000,0.000,0.000,0,00:00:00,1008.134,42.988,42.659,-4.195,-0.194,7.413,6.443,0.011,-0.019,-0.053,-130.000,-3097.000,4812.000,0.398,0.120,0.243,0.877,3.155,7.887
1668.568,6,6,1.707,4.632,-4.446,4.980,13.052,-0.883,3.770,9.191,-0.571,0.0000000,0.0000000,0.000,0.000,0.000,0.000,0,00:00:00,1008.136,42.987,42.643,-4.211,-0.144,7.520,6.515,-0.002,0.032,0.043,1.000,-3137.000,4877.000,0.397,0.121,0.248,0.875,3.119,7.798
1668.769,6,6,1.732,4.623,-4.430,5.064,13.030,-0.821,3.875,9.118,-0.408,0.0000000,0.0000000,0.000,0.000,0.000,0.000,0,00:00:00,1008.133,42.985,42.661,-4.193,-0.165,7.492,6.493,-0.085,0.124,0.058,-105.000,-3129.000,4876.000,0.391,0.127,0.259,0.874,3.123,7.806
1668.970,6,6,1.757,4.612,-4.422,5.137,12.986,-0.724,3.867,8.986,-0.150,0.0000000,0.0000000,0.000,0.000,0.000,0.000,0,00:00:00,1008.136,42.991,42.640,-4.214,-0.151,7.348,6.457,-0.181,0.053,0.013,-188.000,-3117.000,4871.000,0.383,0.127,0.265,0.876,3.110,7.774
1669.171,6,6,1.783,4.602,-4.405,5.221,12.961,-0.702,3.980,9.061,-0.505,0.0000000,0.0000000,0.000,0.000,0.000,0.000,0,00:00:00,1008.134,42.986,42.653,-4.201,-0.165,7.564,6.400,-0.036,-0.070,0.019,-143.000,-3175.000,4917.000,0.391,0.124,0.262,0.873,3.148,7.871
1669.372,6,6,1.807,4.591,-4.383,5.252,12.931,-0.668,3.762,9.016,-0.447,0.0000000,0.0000000,0.000,0.000,0.000,0.000,0,00:00:00,1008.132,42.979,42.674,-4.180,-0.158,7.406,6.386,-0.036,0.013,-0.100,-145.000,-3090.000,4840.000,0.392,0.127,0.255,0.875,3.068,7.669
1669.573,6,6,1.826,4.581,-4.395,5.266,12.911,-0.684,3.711,9.041,-0.555,0.0000000,0.0000000,0.000,0.000,0.000,0.000,0,00:00:00,1008.139,42.978,42.617,-4.237,-0.079,7.413,6.393,0.034,-0.043,-0.111,-171.000,-3099.000,4826.000,0.397,0.123,0.245,0.876,3.106,7.766
1669.774,6,6,1.839,4.573,-4.388,5.284,12.900,-0.717,3.759,9.074,-0.733,0.0000000,0.0000000,0.000,0.000,0.000,0.000,0,00:00:00,1008.134,42.985,42.653,-4.201,-0.115,7.492,6.393,0.096,0.034,-0.009,-28.000,-3114.000,4804.000,0.403,0.125,0.247,0.873,3.116,7.790
1669.975,6,6,1.851,4.566,-4.376,5.316,12.886,-0.693,3.857,9.044,-0.470,0.0000000,0.0000000,0.000,0.000,0.000,0.000,0,00:00:00,1008.132,42.970,42.673,-4.181,-0.136,7.434,6.450,-0.070,0.107,0.055,-10.000,-3165.000,4883.000,0.395,0.128,0.258,0.872,3.126,7.815
1670.176,6,6,1.864,4.559,-4.379,5.372,12.851,-0.683,3.997,8.925,-0.475,0.0000000,0.0000000,0.000,0.000,0.000,0.000,0,00:00:00,1008.135,42.980,42.649,-4.205,-0.101,7.427,6.378,-0.053,-0.011,0.068,-170.000,-3107.000,4864.000,0.395,0.124,0.263,0.871,3.177,7.944
1670.377,6,6,1.880,4.551,-4.356,5.433,12.842,-0.640,4.056,9.036,-0.388,0.0000000,0.0000000,0.000,0.000,0.000,0.000,0,00:00:00,1008.129,42.981,42.696,-4.157,-0.165,7.463,6.522,0.017,0.043,0.075,14.000,-3180.000,4870.000,0.394,0.128,0.270,0.869,3.152,7.879
1670.578,6,6,1.898,4.545,-4.345,5.495,12.829,-0.617,4.097,9.008,-0.413,0.0000000,0.0000000,0.000,0.000,0.000,0.000,0,00:00:00,1008.131,42.987,42.684,-4.170,-0.144,7.485,6.486,-0.015,-0.021,0.028,-165.000,-3099.000,4860.000,0.394,0.128,0.270,0.869,3.168,7.919
1670.779,6,6,1.916,4.539,-4.359,5.527,12.813,-0.586,3.981,8.977,-0.258,0.0000000,0.0000000,0.000,0.000,0.000,0.000,0,00:00:00,1008.137,42.971,42.632,-4.222,-0.108,7.377,6.486,-0.049,0.030,-0.070,-139.000,-3095.000,4811.000,0.390,0.129,0.267,0.872,3.155,7.887
1670.980,6,6,1.930,4.534,-4.366,5.537,12.805,-0.592,3.902,9.011,-0.457,0.0000000,0.0000000,0.000,0.000,0.000,0.000,0,00:00:00,1008.137,42.975,42.629,-4.225,-0.187,7.434,6.429,0.053,0.017,-0.038,-158.000,-3145.000,4846.000,0.394,0.133,0.264,0.870,3.168,7.919
1671.181,6,6,1.942,4.529,-4.346,5.584,12.794,-0.574,4.109,8.983,-0.438,0.0000000,0.0000000,0.000,0.000,0.000,0.000,0,00:00:00,1008.131,42.977,42.683,-4.171,-0.122,7.506,6.436,-0.011,0.070,0.034,9.000,-3153.000,4876.000,0.394,0.134,0.272,0.868,3.168,7.919
1671.382,6,6,1.956,4.525,-4.338,5.634,12.790,-0.556,4.153,9.013,-0.379,0.0000000,0.0000000,0.000,0.000,0.000,0.000,0,00:00:00,1008.132,42.982,42.671,-4.182,-0.151,7.549,6.450,-0.058,0.100,-0.017,15.000,-3166.000,4926.000,0.391,0.139,0.276,0.867,3.181,7.952
1671.583,6,6,1.971,4.523,-4.358,5.675,12.804,-0.570,4.140,9.097,-0.424,0.0000000,0.0000000,0.000,0.000,0.000,0.000,0,00:00:00,1008.139,42.974,42.613,-4.241,-0.165,7.571,6.536,0.030,-0.040,-0.015,-47.000,-3099.000,4881.000,0.394,0.136,0.274,0.867,3.126,7.815
1671.784,6,6,1.986,4.522,-4.373,5.716,12.781,-0.558,4.167,8.907,-0.322,0.0000000,0.0000000,0.000,0.000,0.000,0.000,0,00:00:00,1008.140,42.973,42.606,-4.248,-0.180,7.434,6.443,-0.043,0.028,0.077,14.000,-3142.000,4940.000,0.391,0.136,0.281,0.866,3.097,7.742
1671.985,6,6,1.999,4.519,-4.356,5.736,12.786,-0.544,4.090,9.047,-0.419,0.0000000,0.0000000,0.000,0.000,0.000,0.000,0,00:00:00,1008.134,42.975,42.660,-4.194,-0.129,7.528,6.486,0.040,0.000,-0.136,-167.000,-3108.000,4923.000,0.394,0.137,0.271,0.867,3.168,7.919
1672.186,6,6,2.010,4.518,-4.318,5.753,12.785,-0.485,4.094,9.013,-0.255,0.0000000,0.0000000,0.000,0.000,0.000,0.000,0,00:00:00,1008.127,42.976,42.717,-4.137,-0.194,7.449,6.522,-0.043,0.060,0.045,2.000,-3109.000,4812.000,0.390,0.138,0.278,0.867,3.126,7.815
1672.387,6,6,2.017,4.518,-4.303,5.743,12.800,-0.515,3.979,9.093,-0.588,0.0000000,0.0000000,0.000,0.000,0.000,0.000,0,00:00:00,1008.129,42.980,42.697,-4.157,-0.158,7.485,6.544,0.226,-0.170,-0.072,-87.000,-3105.000,4871.000,0.403,0.130,0.263,0.867,3.119,7.798
1672.588,6,6,2.023,4.516,-4.318,5.771,12.752,-0.544,4.174,8.774,-0.498,0.0000000,0.0000000,0.000,0.000,0.000,0.000,0,00:00:00,1008.134,42.974,42.653,-4.201,-0.079,7.377,6.342,0.017,0.089,0.096,18.000,-3176.000,4891.000,0.400,0.133,0.276,0.864,3.132,7.831
1672.789,6,6,2.027,4.512,-4.318,5.747,12.760,-0.550,3.926,9.044,-0.453,0.0000000,0.0000000,0.000,0.000,0.000,0.000,0,00:00:00,1008.132,42.965,42.677,-4.177,-0.136,7.420,6.508,0.066,-0.011,-0.156,-150.000,-3116.000,4828.000,0.398,0.134,0.264,0.868,3.097,7.742
1672.990,6,6,2.027,4.511,-4.332,5.723,12.773,-0.575,3.927,9.071,-0.505,0.0000000,0.0000000,0.000,0.000,0.000,0.000,0,00:00:00,1008.135,42.962,42.647,-4.207,-0.136,7.506,6.450,-0.049,-0.013,-0.055,9.000,-3136.000,4833.000,0.395,0.131,0.260,0.871,3.110,7.774
1673.191,6,6,2.022,4.512,-4.311,5.677,12.783,-0.553,3.808,9.054,-0.407,0.0000000,0.0000000,0.000,0.000,0.000,0.000,0,00:00:00,1008.127,42.960,42.713,-4.141,-0.158,7.391,6.479,0.006,0.009,-0.045,-133.000,-3128.000,4886.000,0.394,0.130,0.258,0.872,3.090,7.726
1673.392,6,6,2.014,4.514,-4.316,5.646,12.800,-0.595,3.866,9.095,-0.635,0.0000000,0.0000000,0.000,0.000,0.000,0.000,0,00:00:00,1008.131,42.962,42.679,-4.175,-0.194,7.542,6.414,-0.038,-0.109,0.038,-141.000,-3130.000,4817.000,0.397,0.123,0.256,0.873,3.155,7.887
1673.593,6,6,2.004,4.518,-4.345,5.610,12.814,-0.618,3.820,9.087,-0.472,0.0000000,0.0000000,0.000,0.000,0.000,0.000,0,00:00:00,1008.137,42.955,42.628,-4.226,-0.187,7.441,6.479,0.034,0.113,-0.023,49.000,-3190.000,4879.000,0.395,0.131,0.259,0.871,3.090,7.726
1673.794,6,6,1.997,4.519,-4.347,5.628,12.795,-0.594,4.074,8.923,-0.342,0.0000000,0.0000000,0.000,0.000,0.000,0.000,0,00:00:00,1008.134,42.966,42.660,-4.194,-0.151,7.427,6.414,-0.092,0.075,0.126,42.000,-3184.000,4820.000,0.391,0.132,0.274,0.869,3.077,7.694
1673.995,6,6,1.996,4.517,-4.363,5.659,12.752,-0.564,4.138,8.805,-0.234,0.0000000,0.0000000,0.000,0.000,0.000,0.000,0,00:00:00,1008.139,42.958,42.617,-4.237,-0.136,7.348,6.378,-0.066,0.055,0.051,14.000,-3170.000,4908.000,0.388,0.134,0.280,0.868,3.177,7.944
1674.196,6,6,1.999,4.511,-4.349,5.692,12.739,-0.540,4.155,8.936,-0.367,0.0000000,0.0000000,0.000,0.000,0.000,0.000,0,00:00:00,1008.133,42.959,42.665,-4.189,-0.172,7.470,6.436,0.006,-0.032,0.000,-130.000,-3118.000,4839.000,0.392,0.134,0.278,0.867,3.123,7.806
1674.397,6,6,2.004,4.507,-4.358,5.703,12.738,-0.548,4.056,8.990,-0.424,0.0000000,0.0000000,0.000,0.000,0.000,0.000,0,00:00:00,1008.138,42.971,42.623,-4.231,-0.151,7.485,6.436,-0.009,-0.030,-0.081,23.000,-3135.000,4811.000,0.393,0.133,0.270,0.869,3.171,7.927
1674.598,6,6,2.010,4.503,-4.387,5.732,12.727,-0.586,4.156,8.937,-0.518,0.0000000,0.0000000,0.000,0.000,0.000,0.000,0,00:00:00,1008.144,42.959,42.576,-4.278,-0.151,7.506,6.407,0.055,0.028,0.047,-129.000,-3130.000,4872.000,0.397,0.135,0.275,0.865,3.158,7.895
1674.799,6,6,2.017,4.500,-4.395,5.769,12.716,-0.587,4.210,8.925,-0.427,0.0000000,0.0000000,0.000,0.000,0.000,0.000,0,00:00:00,1008.141,42.960,42.600,-4.254,-0.194,7.477,6.450,-0.038,-0.045,0.111,-107.000,-3129.000,4866.000,0.395,0.132,0.281,0.865,3.084,7.710
1675.000,6,6,2.025,4.497,-4.360,5.766,12.714,-0.535,4.025,8.966,-0.308,0.0000000,0.0000000,0.000,0.000,0.000,0.000,0,00:00:00,1008.131,42.959,42.681,-4.173,-0.215,7.406,6.465,-0.011,0.058,-0.079,60.000,-3196.000,4880.000,0.391,0.138,0.277,0.867,3.129,7.823
1678.368,6,6,28.179,60.849,-6.044,8.658,18.357,-0.274,4.215,8.923,-0.251,0.0000000,0.0000000,0.000,0.000,0.000,0.000,0,00:00:00,1008.137,42.950,42.632,-4.222,-0.129,7.485,6.436,-0.081,0.077,0.000,-130.000,-3129.000,4797.000,0.388,0.140,0.282,0.866,3.145,7.863
1678.569,6,6,2.558,5.517,-4.307,2.346,4.727,0.154,4.161,8.894,-0.272,0.0000000,0.0000000,0.000,0.000,0.000,0.000,0,00:00:00,1008.136,42.956,42.643,-4.211,-0.180,7.456,6.393,-0.045,0.064,-0.036,-153.000,-3124.000,4781.000,0.388,0.143,0.283,0.865,3.106,7.766
1678.770,6,6,1.470,3.139,-4.232,2.775,5.664,0.119,4.157,8.981,-0.239,0.0000000,0.0000000,0.000,0.000,0.000,0.000,0,00:00:00,1008.133,42.954,42.661,-4.193,-0.122,7.477,6.486,-0.028,-0.011,-0.083,5.000,-3151.000,4859.000,0.389,0.140,0.278,0.867,3.097,7.742
1678.971,6,6,1.249,2.637,-4.198,3.380,6.987,0.053,4.137,8.961,-0.352,0.0000000,0.0000000,0.000,0.000,0.000,0.000,0,00:00:00,1008.132,42.945,42.676,-4.178,-0.086,7.485,6.443,-0.002,-0.028,-0.075,-156.000,-3112.000,4828.000,0.392,0.135,0.273,0.868,3.135,7.839
1679.172,6,6,1.288,2.697,-4.169,4.028,8.298,-0.016,4.340,8.864,-0.389,0.0000000,0.0000000,0.000,0.000,0.000,0.000,0,00:00:00,1008.126,42.951,42.720,-4.134,-0.115,7.492,6.436,-0.006,-0.023,0.158,-107.000,-3098.000,4844.000,0.394,0.131,0.284,0.864,3.181,7.952
1679.373,6,6,1.434,2.984,-4.211,4.610,9.497,-0.097,4.289,8.859,-0.331,0.0000000,0.0000000,0.000,0.000,0.000,0.000,0,00:00:00,1008.141,42.941,42.599,-4.255,-0.136,7.477,6.407,-0.053,0.058,-0.015,-147.000,-3165.000,4899.000,0.391,0.137,0.285,0.864,3.200,8.000
1679.574,6,6,1.615,3.347,-4.220,5.092,10.503,-0.175,4.216,8.778,-0.439,0.0000000,0.0000000,0.000,0.000,0.000,0.000,0,00:00:00,1008.134,42.945,42.660,-4.194,-0.187,7.406,6.335,0.021,-0.064,0.047,-121.000,-3151.000,4870.000,0.395,0.135,0.284,0.863,3.158,7.895
1679.775,6,6,1.791,3.703,-4.251,5.500,11.317,-0.245,4.361,8.864,-0.382,0.0000000,0.0000000,0.000,0.000,0.000,0.000,0,00:00:00,1008.138,42.956,42.619,-4.235,-0.158,7.485,6.457,0.000,-0.040,0.094,44.000,-3194.000,4854.000,0.395,0.133,0.288,0.862,3.087,7.718
1679.976,6,6,1.940,4.007,-4.268,5.771,11.933,-0.283,4.190,8.938,-0.309,0.0000000,0.0000000,0.000,0.000,0.000,0.000,0,00:00:00,1008.136,42.933,42.636,-4.218,-0.136,7.427,6.508,0.019,-0.036,-0.077,44.000,-3143.000,4909.000,0.394,0.134,0.279,0.865,3.165,7.911
1680.177,6,6,2.051,4.239,-4.277,5.959,12.326,-0.315,4.236,8.773,-0.333,0.0000000,0.0000000,0.000,0.000,0.000,0.000,0,00:00:00,1008.135,42.942,42.646,-4.208,-0.158,7.370,6.378,-0.015,-0.006,0.089,27.000,-3196.000,4854.000,0.393,0.134,0.285,0.864,3.074,7.685
1680.378,6,6,2.130,4.398,-4.286,6.107,12.561,-0.327,4.403,8.750,-0.260,0.0000000,0.0000000,0.000,0.000,0.000,0.000,0,00:00:00,1008.136,42.938,42.641,-4.213,-0.151,7.413,6.407,-0.043,0.013,0.124,-142.000,-3106.000,4835.000,0.391,0.135,0.294,0.862,3.132,7.831
1680.579,6,6,2.182,4.495,-4.277,6.201,12.695,-0.329,4.419,8.804,-0.287,0.0000000,0.0000000,0.000,0.000,0.000,0.000,0,00:00:00,1008.132,42.926,42.674,-4.180,-0.180,7.492,6.400,-0.045,0.028,0.021,-87.000,-3137.000,4814.000,0.390,0.140,0.295,0.861,3.158,7.895
1680.780,6,6,2.214,4.547,-4.292,6.262,12.744,-0.330,4.450,8.761,-0.199,0.0000000,0.0000000,0.000,0.000,0.000,0.000,0,00:00:00,1008.137,42.943,42.629,-4.225,-0.101,7.427,6.436,-0.028,-0.036,0.019,-143.000,-3129.000,4912.000,0.390,0.137,0.295,0.861,3.152,7.879
1680.981,6,6,2.234,4.566,-4.287,6.311,12.758,-0.323,4.526,8.819,-0.230,0.0000000,0.0000000,0.000,0.000,0.000,0.000,0,00:00:00,1008.134,42.928,42.657,-4.197,-0.129,7.492,6.493,0.011,-0.021,0.070,-147.000,-3110.000,4882.000,0.391,0.138,0.298,0.860,3.142,7.855
1681.182,6,6,2.244,4.566,-4.296,6.323,12.729,-0.307,4.430,8.744,-0.127,0.0000000,0.0000000,0.000,0.000,0.000,0.000,0,00:00:00,1008.138,42.925,42.627,-4.227,-0.136,7.355,6.479,0.023,0.006,0.021,29.000,-3171.000,4941.000,0.390,0.140,0.299,0.860,3.116,7.790
1681.383,6,6,2.248,4.552,-4.306,6.328,12.683,-0.301,4.441,8.715,-0.168,0.0000000,0.0000000,0.000,0.000,0.000,0.000,0,00:00:00,1008.139,42.931,42.615,-4.239,-0.101,7.398,6.400,-0.053,-0.019,-0.021,54.000,-3140.000,4900.000,0.389,0.139,0.297,0.861,3.126,7.815
1681.584,6,6,2.247,4.532,-4.306,6.310,12.644,-0.329,4.354,8.772,-0.380,0.0000000,0.0000000,0.000,0.000,0.000,0.000,0,00:00:00,1008.137,42.933,42.629,-4.225,-0.122,7.470,6.342,0.004,-0.055,-0.062,-7.000,-3152.000,4905.000,0.393,0.138,0.288,0.862,3.074,7.685
1681.785,6,6,2.245,4.510,-4.278,6.340,12.583,-0.359,4.607,8.647,-0.522,0.0000000,0.0000000,0.000,0.000,0.000,0.000,0,00:00:00,1008.129,42.935,42.701,-4.153,-0.180,7.477,6.350,0.156,-0.019,0.258,55.000,-3179.000,4854.000,0.402,0.139,0.304,0.853,3.087,7.718
1681.986,6,6,2.244,4.487,-4.335,6.335,12.547,-0.413,4.438,8.748,-0.346,0.0000000,0.0000000,0.000,0.000,0.000,0.000,0,00:00:00,1008.147,42.937,42.545,-4.309,-0.108,7.441,6.400,-0.032,-0.026,-0.109,-142.000,-3107.000,4908.000,0.395,0.141,0.294,0.859,3.097,7.742
1682.187,6,6,2.240,4.469,-4.342,6.291,12.542,-0.448,4.243,8.877,-0.482,0.0000000,0.0000000,0.000,0.000,0.000,0.000,0,00:00:00,1008.139,42.932,42.613,-4.241,-0.172,7.456,6.436,0.077,-0.124,-0.049,-104.000,-3103.000,4869.000,0.399,0.136,0.283,0.862,3.171,7.927
1682.388,6,6,2.234,4.453,-4.336,6.294,12.505,-0.454,4.470,8.699,-0.402,0.0000000,0.0000000,0.000,0.000,0.000,0.000,0,00:00:00,1008.136,42.929,42.640,-4.214,-0.029,7.413,6.393,0.068,0.026,0.083,5.000,-3160.000,4910.000,0.400,0.136,0.290,0.859,3.090,7.726
1682.589,6,6,2.231,4.441,-4.350,6.301,12.511,-0.472,4.488,8.887,-0.395,0.0000000,0.0000000,0.000,0.000,0.000,0.000,0,00:00:00,1008.140,42.922,42.605,-4.249,-0.144,7.556,6.493,-0.030,-0.034,0.064,-122.000,-3119.000,4882.000,0.396,0.135,0.292,0.860,3.181,7.952
1682.790,6,6,2.228,4.432,-4.373,6.288,12.487,-0.482,4.382,8.725,-0.325,0.0000000,0.0000000,0.000,0.000,0.000,0.000,0,00:00:00,1008.144,42.941,42.574,-4.280,-0.151,7.398,6.378,-0.004,0.006,0.032,7.000,-3152.000,4985.000,0.394,0.138,0.294,0.860,3.177,7.944
1682.991,6,6,2.226,4.424,-4.354,6.284,12.474,-0.431,4.421,8.765,-0.174,0.0000000,0.0000000,0.000,0.000,0.000,0.000,0,00:00:00,1008.136,42.919,42.640,-4.214,-0.108,7.420,6.429,-0.075,0.032,-0.006,-94.000,-3145.000,4933.000,0.389,0.140,0.295,0.862,3.139,7.847
1683.192,6,6,2.223,4.417,-4.357,6.270,12.476,-0.461,4.364,8.824,-0.487,0.0000000,0.0000000,0.000,0.000,0.000,0.000,0,00:00:00,1008.140,42.929,42.608,-4.246,-0.115,7.513,6.378,0.128,-0.036,-0.070,-117.000,-3111.000,4831.000,0.398,0.141,0.287,0.860,3.081,7.702
1683.393,6,6,2.219,4.413,-4.358,6.267,12.468,-0.454,4.415,8.769,-0.310,0.0000000,0.0000000,0.000,0.000,0.000,0.000,0,00:00:00,1008.139,42.934,42.611,-4.243,-0.158,7.413,6.443,0.011,0.004,0.119,-106.000,-3126.000,4823.000,0.395,0.140,0.296,0.859,3.116,7.790
1683.594,6,6,2.217,4.409,-4.355,6.259,12.458,-0.452,4.386,8.750,-0.350,0.0000000,0.0000000,0.000,0.000,0.000,0.000,0,00:00:00,1008.139,42.937,42.618,-4.236,-0.165,7.406,6.407,-0.015,-0.130,0.062,11.000,-3100.000,4860.000,0.395,0.133,0.292,0.861,3.113,7.782
1683.795,6,6,2.213,4.406,-4.338,6.233,12.464,-0.454,4.290,8.821,-0.425,0.0000000,0.0000000,0.000,0.000,0.000,0.000,0,00:00:00,1008.134,42.933,42.653,-4.201,-0.172,7.456,6.386,-0.032,-0.098,-0.009,81.000,-3156.000,4916.000,0.395,0.131,0.285,0.864,3.181,7.952
1683.996,6,6,2.211,4.405,-4.348,6.261,12.463,-0.459,4.547,8.791,-0.341,0.0000000,0.0000000,0.000,0.000,0.000,0.000,0,00:00:00,1008.140,42.947,42.610,-4.244,-0.122,7.513,6.450,0.009,0.038,0.153,-152.000,-3125.000,4859.000,0.395,0.135,0.297,0.859,3.103,7.758
1684.197,6,6,2.210,4.403,-4.345,6.243,12.453,-0.457,4.322,8.737,-0.359,0.0000000,0.0000000,0.000,0.000,0.000,0.000,0,00:00:00,1008.137,42.932,42.630,-4.224,-0.158,7.384,6.371,-0.021,-0.111,-0.004,20.000,-3184.000,4872.000,0.394,0.132,0.289,0.862,3.081,7.702
1684.398,6,6,2.206,4.403,-4.332,6.206,12.472,-0.446,4.221,8.880,-0.345,0.0000000,0.0000000,0.000,0.000,0.000,0.000,0,00:00:00,1008.134,42.922,42.654,-4.200,-0.129,7.434,6.443,-0.011,-0.047,-0.070,-129.000,-3111.000,4967.000,0.393,0.133,0.280,0.866,3.129,7.823
1684.599,6,6,2.198,4.404,-4.324,6.157,12.474,-0.448,4.142,8.802,-0.384,0.0000000,0.0000000,0.000,0.000,0.000,0.000,0,00:00:00,1008.134,42.922,42.654,-4.200,-0.115,7.391,6.335,0.000,0.053,-0.066,-121.000,-3130.000,4818.000,0.393,0.137,0.278,0.866,3.129,7.823
1684.800,6,6,2.185,4.406,-4.338,6.089,12.496,-0.476,4.020,8.903,-0.442,0.0000000,0.0000000,0.000,0.000,0.000,0.000,0,00:00:00,1008.139,42.928,42.617,-4.237,-0.201,7.427,6.357,-0.002,0.023,-0.062,-116.000,-3095.000,4871.000,0.393,0.140,0.274,0.866,3.094,7.734
1685.001,6,6,2.168,4.411,-4.345,6.017,12.530,-0.488,3.970,8.972,-0.410,0.0000000,0.0000000,0.000,0.000,0.000,0.000,0,00:00:00,1008.138,42.930,42.624,-4.230,-0.165,7.377,6.479,0.109,-0.036,-0.043,18.000,-3143.000,4883.000,0.397,0.136,0.270,0.867,3.126,7.815
1685.202,6,6,2.149,4.418,-4.337,5.968,12.562,-0.516,4.046,8.978,-0.553,0.0000000,0.0000000,0.000,0.000,0.000,0.000,0,00:00:00,1008.134,42.920,42.655,-4.199,-0.136,7.528,6.371,-0.034,0.013,-0.055,-158.000,-3113.000,4858.000,0.396,0.136,0.268,0.868,3.165,7.911
1685.403,6,6,2.126,4.429,-4.342,5.845,12.623,-0.535,3.633,9.143,-0.486,0.0000000,0.0000000,0.000,0.000,0.000,0.000,0,00:00:00,1008.136,42.918,42.641,-4.213,-0.151,7.456,6.436,-0.085,-0.083,-0.260,-128.000,-3122.000,4881.000,0.393,0.129,0.246,0.877,3.084,7.710
1685.604,6,6,2.100,4.442,-4.342,5.777,12.653,-0.591,3.851,9.013,-0.715,0.0000000,0.0000000,0.000,0.000,0.000,0.000,0,00:00:00,1008.134,42.919,42.656,-4.198,-0.151,7.535,6.307,0.011,0.036,0.070,-127.000,-3153.000,4926.000,0.399,0.129,0.254,0.872,3.113,7.782
1685.805,6,6,2.075,4.454,-4.362,5.725,12.683,-0.623,3.881,9.041,-0.551,0.0000000,0.0000000,0.000,0.000,0.000,0.000,0,00:00:00,1008.138,42.921,42.622,-4.232,-0.151,7.449,6.450,-0.064,-0.141,0.102,-124.000,-3067.000,4871.000,0.397,0.117,0.255,0.874,3.177,7.944
1686.006,6,6,2.054,4.464,-4.389,5.696,12.694,-0.631,3.954,8.964,-0.423,0.0000000,0.0000000,0.000,0.000,0.000,0.000,0,00:00:00,1008.142,42.930,42.591,-4.263,-0.093,7.398,6.436,-0.028,0.070,0.032,57.000,-3169.000,4806.000,0.395,0.122,0.261,0.873,3.097,7.742
1686.207,6,6,2.038,4.470,-4.411,5.681,12.674,-0.658,3.997,8.819,-0.542,0.0000000,0.0000000,0.000,0.000,0.000,0.000,0,00:00:00,1008.143,42.914,42.579,-4.275,-0.115,7.348,6.328,0.036,-0.045,0.096,32.000,-3131.000,4834.000,0.399,0.121,0.265,0.870,3.177,7.944
1686.408,6,6,2.028,4.473,-4.411,5.701,12.684,-0.692,4.145,8.979,-0.690,0.0000000,0.0000000,0.000,0.000,0.000,0.000,0,00:00:00,1008.139,42.920,42.615,-4.239,-0.172,7.556,6.414,0.085,0.030,0.092,21.000,-3152.000,4945.000,0.402,0.128,0.270,0.865,3.139,7.847
1686.609,6,6,2.024,4.475,-4.427,5.718,12.678,-0.713,4.124,8.903,-0.590,0.0000000,0.0000000,0.000,0.000,0.000,0.000,0,00:00:00,1008.142,42.923,42.588,-4.266,-0.208,7.420,6.443,0.107,-0.019,0.119,-144.000,-3135.000,4855.000,0.403,0.130,0.276,0.863,3.174,7.935
1686.810,6,6,2.023,4.477,-4.431,5.732,12.693,-0.756,4.106,9.007,-0.767,0.0000000,0.0000000,0.000,0.000,0.000,0.000,0,00:00:00,1008.140,42.922,42.605,-4.249,-0.172,7.564,6.429,0.109,-0.068,-0.032,-110.000,-3113.000,4789.000,0.406,0.130,0.268,0.864,3.177,7.944
1687.011,6,6,2.025,4.480,-4.446,5.748,12.697,-0.751,4.122,8.964,-0.501,0.0000000,0.0000000,0.000,0.000,0.000,0.000,0,00:00:00,1008.143,42.910,42.582,-4.272,-0.158,7.456,6.479,-0.023,-0.006,0.075,-131.000,-3137.000,4797.000,0.399,0.129,0.273,0.866,3.158,7.895
1687.212,6,6,2.029,4.480,-4.449,5.778,12.676,-0.742,4.198,8.836,-0.521,0.0000000,0.0000000,0.000,0.000,0.000,0.000,0,00:00:00,1008.142,42.918,42.592,-4.262,-0.108,7.434,6.378,0.006,-0.036,0.064,-145.000,-3116.000,4800.000,0.399,0.127,0.275,0.865,3.077,7.694
1687.413,6,6,2.033,4.480,-4.466,5.779,12.685,-0.745,4.061,8.987,-0.523,0.0000000,0.0000000,0.000,0.000,0.000,0.000,0,00:00:00,1008.146,42.921,42.557,-4.297,-0.165,7.470,6.457,0.066,0.023,-0.055,49.000,-3153.000,4850.000,0.399,0.133,0.270,0.866,3.177,7.944
1687.614,6,6,2.039,4.477,-4.461,5.827,12.645,-0.744,4.311,8.736,-0.587,0.0000000,0.0000000,0.000,0.000,0.000,0.000,0,00:00:00,1008.142,42.922,42.589,-4.265,-0.108,7.441,6.314,0.100,0.072,0.132,38.000,-3164.000,4951.000,0.402,0.137,0.283,0.860,3.084,7.710
1687.815,6,6,2.050,4.471,-4.461,5.891,12.615,-0.715,4.411,8.776,-0.424,0.0000000,0.0000000,0.000,0.000,0.000,0.000,0,00:00:00,1008.143,42.913,42.580,-4.274,-0.115,7.456,6.407,-0.002,0.023,0.079,0.000,-3171.000,4940.000,0.398,0.137,0.290,0.859,3.139,7.847
1688.016,6,6,2.063,4.465,-4.464,5.911,12.597,-0.695,4.213,8.820,-0.434,0.0000000,0.0000000,0.000,0.000,0.000,0.000,0,00:00:00,1008.145,42.909,42.566,-4.288,-0.187,7.441,6.350,-0.068,-0.055,-0.047,35.000,-3176.000,4868.000,0.394,0.136,0.283,0.864,3.129,7.823
1688.217,6,6,2.071,4.459,-4.445,5.900,12.593,-0.663,4.079,8.879,-0.440,0.0000000,0.0000000,0.000,0.000,0.000,0.000,0,00:00:00,1008.140,42.919,42.608,-4.246,-0.144,7.420,6.371,-0.023,-0.081,-0.083,-67.000,-3118.000,4870.000,0.394,0.132,0.273,0.867,3.090,7.726
1688.418,6,6,2.075,4.454,-4.442,5.890,12.586,-0.638,4.093,8.859,-0.390,0.0000000,0.0000000,0.000,0.000,0.000,0.000,0,00:00:00,1008.143,42.910,42.582,-4.272,-0.108,7.377,6.400,-0.043,-0.094,0.036,-105.000,-3112.000,4850.000,0.394,0.125,0.271,0.869,3.071,7.677
1688.619,6,6,2.077,4.451,-4.439,5.886,12.589,-0.617,4.124,8.898,-0.394,0.0000000,0.0000000,0.000,0.000,0.000,0.000,0,00:00:00,1008.143,42.903,42.580,-4.274,-0.151,7.427,6.414,-0.013,0.038,0.043,-96.000,-3138.000,4912.000,0.393,0.130,0.275,0.868,3.135,7.839
1688.820,6,6,2.080,4.450,-4.427,5.930,12.596,-0.583,4.372,8.915,-0.338,0.0000000,0.0000000,0.000,0.000,0.000,0.000,0,00:00:00,1008.141,42.903,42.596,-4.258,-0.122,7.506,6.508,-0.019,-0.023,0.156,32.000,-3197.000,4918.000,0.394,0.128,0.285,0.865,3.165,7.911
1689.021,6,6,2.089,4.448,-4.443,5.983,12.564,-0.587,4.433,8.717,-0.412,0.0000000,0.0000000,0.000,0.000,0.000,0.000,0,00:00:00,1008.148,42.902,42.539,-4.315,-0.101,7.406,6.400,0.034,-0.111,0.158,51.000,-3179.000,4945.000,0.398,0.124,0.289,0.862,3.097,7.742
1689.222,6,6,2.101,4.443,-4.438,6.029,12.548,-0.577,4.424,8.789,-0.415,0.0000000,0.0000000,0.000,0.000,0.000,0.000,0,00:00:00,1008.144,42.914,42.571,-4.283,-0.093,7.485,6.400,0.030,0.077,-0.017,-5.000,-3184.000,4853.000,0.396,0.135,0.289,0.861,3.174,7.935
1689.423,6,6,2.113,4.438,-4.435,6.057,12.537,-0.538,4.355,8.806,-0.254,0.0000000,0.0000000,0.000,0.000,0.000,0.000,0,00:00:00,1008.145,42.899,42.566,-4.288,-0.115,7.420,6.443,-0.013,0.068,-0.015,40.000,-3173.000,4889.000,0.392,0.140,0.291,0.862,3.129,7.823
1689.624,6,6,2.124,4.433,-4.436,6.072,12.514,-0.519,4.311,8.735,-0.310,0.0000000,0.0000000,0.000,0.000,0.000,0.000,0,00:00:00,1008.147,42.907,42.552,-4.302,-0.172,7.391,6.350,-0.030,-0.021,0.034,44.000,-3133.000,4864.000,0.391,0.139,0.292,0.862,3.142,7.855
1689.825,6,6,2.134,4.430,-4.438,6.109,12.532,-0.513,4.444,8.931,-0.359,0.0000000,0.0000000,0.000,0.000,0.000,0.000,0,00:00:00,1008.147,42.895,42.546,-4.308,-0.129,7.592,6.479,-0.036,-0.053,0.006,7.000,-3177.000,4850.000,0.392,0.136,0.289,0.862,3.148,7.871
1693.200,6,6,28.738,60.552,-6.174,8.506,18.300,-0.324,4.126,8.906,-0.271,0.0000000,0.0000000,0.000,0.000,0.000,0.000,0,00:00:00,1008.153,42.896,42.496,-4.358,-0.201,7.420,6.429,-0.060,0.000,-0.092,-132.000,-3111.000,4832.000,0.389,0.139,0.282,0.866,3.155,7.887
1693.401,6,6,2.594,5.473,-4.485,2.096,4.760,0.086,4.249,8.870,-0.309,0.0000000,0.0000000,0.000,0.000,0.000,0.000,0,00:00:00,1008.157,42.896,42.463,-4.391,-0.115,7.456,6.421,0.000,0.002,0.000,-79.000,-3135.000,4850.000,0.391,0.138,0.283,0.865,3.181,7.952
1693.602,6,6,1.463,3.120,-4.422,2.526,5.678,0.049,4.147,8.851,-0.250,0.0000000,0.0000000,0.000,0.000,0.000,0.000,0,00:00:00,1008.156,42.894,42.473,-4.381,-0.172,7.377,6.414,-0.051,-0.009,-0.002,50.000,-3163.000,4881.000,0.389,0.137,0.282,0.866,3.123,7.806
1693.803,6,6,1.218,2.625,-4.400,3.181,6.954,-0.032,4.357,8.712,-0.432,0.0000000,0.0000000,0.000,0.000,0.000,0.000,0,00:00:00,1008.155,42.897,42.479,-4.375,-0.129,7.441,6.299,0.028,0.000,0.098,23.000,-3167.000,4909.000,0.395,0.137,0.289,0.861,3.174,7.935
1694.004,6,6,1.239,2.686,-4.396,3.777,8.286,-0.139,4.041,8.961,-0.566,0.0000000,0.0000000,0.000,0.000,0.000,0.000,0,00:00:00,1008.154,42.898,42.486,-4.368,-0.201,7.492,6.386,-0.009,-0.166,-0.126,31.000,-3188.000,4903.000,0.397,0.131,0.270,0.867,3.100,7.750
1694.205,6,6,1.366,2.975,-4.419,4.328,9.485,-0.199,4.065,8.849,-0.326,0.0000000,0.0000000,0.000,0.000,0.000,0.000,0,00:00:00,1008.158,42.910,42.453,-4.401,-0.172,7.327,6.421,-0.002,0.045,0.070,62.000,-3165.000,4819.000,0.393,0.133,0.277,0.866,3.155,7.887
1694.406,6,6,1.530,3.342,-4.412,4.786,10.517,-0.254,4.003,8.897,-0.416,0.0000000,0.0000000,0.000,0.000,0.000,0.000,0,00:00:00,1008.151,42.900,42.517,-4.336,-0.122,7.406,6.364,-0.068,-0.079,-0.087,-49.000,-3146.000,4836.000,0.393,0.129,0.267,0.871,3.126,7.815
1694.607,6,6,1.690,3.703,-4.417,5.155,11.354,-0.305,4.035,8.978,-0.407,0.0000000,0.0000000,0.000,0.000,0.000,0.000,0,00:00:00,1008.152,42.900,42.509,-4.345,-0.136,7.463,6.429,-0.023,0.038,-0.006,-150.000,-3137.000,4836.000,0.393,0.131,0.269,0.870,3.171,7.927
1694.808,6,6,1.826,4.014,-4.419,5.416,11.998,-0.370,3.972,9.085,-0.537,0.0000000,0.0000000,0.000,0.000,0.000,0.000,0,00:00:00,1008.150,42.898,42.526,-4.328,-0.136,7.585,6.407,-0.049,0.023,-0.119,-77.000,-3135.000,4853.000,0.393,0.133,0.262,0.871,3.087,7.718
1695.009,6,6,1.927,4.257,-4.417,5.564,12.455,-0.414,3.838,9.117,-0.499,0.0000000,0.0000000,0.000,0.000,0.000,0.000,0,00:00:00,1008.147,42.894,42.546,-4.308,-0.144,7.528,6.436,-0.036,0.036,-0.115,56.000,-3190.000,4882.000,0.393,0.133,0.256,0.873,3.090,7.726
1695.210,6,6,1.992,4.432,-4.412,5.644,12.772,-0.415,3.829,9.215,-0.326,0.0000000,0.0000000,0.000,0.000,0.000,0.000,0,00:00:00,1008.146,42.888,42.559,-4.295,-0.151,7.520,6.565,-0.102,0.013,-0.043,52.000,-3179.000,4848.000,0.389,0.129,0.256,0.875,3.181,7.952
1695.411,6,6,2.028,4.547,-4.461,5.671,12.944,-0.468,3.805,9.086,-0.405,0.0000000,0.0000000,0.000,0.000,0.000,0.000,0,00:00:00,1008.159,42.901,42.444,-4.410,-0.093,7.456,6.450,-0.015,0.032,-0.087,29.000,-3157.000,4878.000,0.392,0.129,0.253,0.875,3.126,7.815
1695.612,6,6,2.043,4.613,-4.432,5.674,13.007,-0.485,3.841,8.958,-0.555,0.0000000,0.0000000,0.000,0.000,0.000,0.000,0,00:00:00,1008.143,42.887,42.583,-4.271,-0.122,7.427,6.335,-0.002,0.000,0.019,43.000,-3156.000,4925.000,0.396,0.126,0.256,0.873,3.139,7.847
1695.813,6,6,2.042,4.645,-4.446,5.634,13.061,-0.544,3.715,9.170,-0.630,0.0000000,0.0000000,0.000,0.000,0.000,0.000,0,00:00:00,1008.150,42.892,42.524,-4.330,-0.194,7.520,6.457,0.004,-0.051,-0.062,-3.000,-3134.000,4867.000,0.398,0.124,0.248,0.875,3.100,7.750
1696.014,6,6,2.025,4.661,-4.456,5.503,13.112,-0.603,3.290,9.323,-0.695,0.0000000,0.0000000,0.000,0.000,0.000,0.000,0,00:00:00,1008.149,42.890,42.533,-4.321,-0.230,7.477,6.500,0.047,-0.072,-0.236,28.000,-3137.000,4748.000,0.399,0.123,0.227,0.880,3.135,7.839
1696.215,6,6,1.995,4.666,-4.480,5.403,13.125,-0.667,3.424,9.235,-0.715,0.0000000,0.0000000,0.000,0.000,0.000,0.000,0,00:00:00,1008.152,42.883,42.506,-4.348,-0.122,7.470,6.457,-0.004,-0.060,0.002,13.000,-3125.000,4818.000,0.401,0.114,0.226,0.881,3.100,7.750
1696.416,6,6,1.963,4.664,-4.491,5.330,13.120,-0.714,3.520,9.198,-0.722,0.0000000,0.0000000,0.000,0.000,0.000,0.000,0,00:00:00,1008.150,42.889,42.526,-4.328,-0.129,7.513,6.407,-0.002,0.166,-0.028,-6.000,-3185.000,4947.000,0.399,0.123,0.234,0.878,3.194,7.984
1696.617,6,6,1.932,4.657,-4.494,5.258,13.097,-0.764,3.475,9.129,-0.808,0.0000000,0.0000000,0.000,0.000,0.000,0.000,0,00:00:00,1008.147,42.885,42.545,-4.309,-0.129,7.477,6.335,-0.045,-0.098,-0.019,-129.000,-3133.000,4932.000,0.401,0.114,0.229,0.880,3.158,7.895
1696.818,6,6,1.900,4.649,-4.533,5.155,13.092,-0.826,3.268,9.227,-0.770,0.0000000,0.0000000,0.000,0.000,0.000,0.000,0,00:00:00,1008.156,42.891,42.475,-4.379,-0.144,7.427,6.421,0.045,0.019,-0.136,32.000,-3158.000,4898.000,0.402,0.116,0.220,0.881,3.116,7.790
1697.019,6,6,1.866,4.641,-4.517,5.072,13.079,-0.797,3.304,9.183,-0.546,0.0000000,0.0000000,0.000,0.000,0.000,0.000,0,00:00:00,1008.145,42.890,42.565,-4.289,-0.136,7.355,6.436,-0.138,-0.009,0.019,24.000,-3171.000,4992.000,0.395,0.110,0.223,0.885,3.158,7.895
1697.220,6,6,1.835,4.635,-4.538,4.992,13.086,-0.818,3.259,9.279,-0.650,0.0000000,0.0000000,0.000,0.000,0.000,0.000,0,00:00:00,1008.153,42.885,42.497,-4.357,-0.165,7.463,6.436,-0.094,-0.060,-0.034,41.000,-3143.000,4799.000,0.395,0.106,0.218,0.886,3.103,7.758
1697.421,6,6,1.803,4.630,-4.538,4.902,13.071,-0.842,3.153,9.157,-0.759,0.0000000,0.0000000,0.000,0.000,0.000,0.000,0,00:00:00,1008.149,42.885,42.529,-4.325,-0.172,7.406,6.285,-0.019,0.136,-0.111,43.000,-3172.000,4883.000,0.397,0.117,0.216,0.884,3.168,7.919
1697.622,6,6,1.774,4.625,-4.516,4.858,13.061,-0.834,3.318,9.180,-0.696,0.0000000,0.0000000,0.000,0.000,0.000,0.000,0,00:00:00,1008.143,42.881,42.581,-4.273,-0.158,7.377,6.429,0.049,0.000,0.083,37.000,-3158.000,4936.000,0.401,0.113,0.224,0.881,3.171,7.927
1697.823,6,6,1.753,4.619,-4.512,4.850,13.035,-0.829,3.461,9.090,-0.629,0.0000000,0.0000000,0.000,0.000,0.000,0.000,0,00:00:00,1008.146,42.878,42.558,-4.296,-0.115,7.370,6.378,-0.017,0.117,0.015,-130.000,-3181.000,4963.000,0.398,0.118,0.232,0.880,3.177,7.944
1698.024,6,6,1.739,4.613,-4.512,4.857,13.022,-0.829,3.503,9.142,-0.641,0.0000000,0.0000000,0.000,0.000,0.000,0.000,0,00:00:00,1008.146,42.884,42.554,-4.300,-0.165,7.434,6.400,-0.083,-0.049,0.047,-137.000,-3150.000,4898.000,0.397,0.113,0.234,0.880,3.097,7.742
1698.225,6,6,1.731,4.608,-4.524,4.862,13.023,-0.874,3.483,9.204,-0.837,0.0000000,0.0000000,0.000,0.000,0.000,0.000,0,00:00:00,1008.149,42.890,42.533,-4.321,-0.115,7.485,6.443,0.134,-0.058,-0.043,-23.000,-3173.000,4942.000,0.406,0.111,0.227,0.878,3.129,7.823
1698.426,6,6,1.725,4.604,-4.547,4.850,13.007,-0.906,3.379,9.107,-0.760,0.0000000,0.0000000,0.000,0.000,0.000,0.000,0,00:00:00,1008.152,42.884,42.505,-4.349,-0.223,7.355,6.386,0.015,0.006,0.064,-132.000,-3146.000,4832.000,0.403,0.113,0.231,0.878,3.155,7.887
1698.627,6,6,1.722,4.600,-4.540,4.866,12.992,-0.928,3.518,9.109,-0.847,0.0000000,0.0000000,0.000,0.000,0.000,0.000,0,00:00:00,1008.146,42.879,42.558,-4.296,-0.115,7.477,6.335,-0.013,-0.009,-0.011,49.000,-3187.000,4910.000,0.404,0.113,0.230,0.878,3.110,7.774
1698.828,6,6,1.722,4.595,-4.525,4.883,12.973,-0.938,3.521,9.076,-0.824,0.0000000,0.0000000,0.000,0.000,0.000,0.000,0,00:00:00,1008.143,42.875,42.585,-4.269,-0.093,7.406,6.371,0.017,-0.119,0.060,12.000,-3187.000,4865.000,0.406,0.104,0.228,0.879,3.090,7.726
1699.029,6,6,1.723,4.592,-4.530,4.888,12.996,-0.977,3.464,9.278,-0.917,0.0000000,0.0000000,0.000,0.000,0.000,0.000,0,00:00:00,1008.145,42.863,42.562,-4.292,-0.165,7.556,6.465,0.026,-0.055,0.017,57.000,-3192.000,4942.000,0.406,0.105,0.224,0.880,3.177,7.944
1699.230,6,6,1.724,4.590,-4.558,4.889,12.977,-1.017,3.447,9.067,-0.864,0.0000000,0.0000000,0.000,0.000,0.000,0.000,0,00:00:00,1008.151,42.890,42.516,-4.337,-0.129,7.377,6.357,0.055,-0.023,0.064,-139.000,-3101.000,4914.000,0.407,0.106,0.226,0.878,3.084,7.710
1699.431,6,6,1.726,4.587,-4.575,4.898,12.966,-1.032,3.492,9.097,-0.801,0.0000000,0.0000000,0.000,0.000,0.000,0.000,0,00:00:00,1008.151,42.878,42.518,-4.336,-0.129,7.427,6.357,-0.015,0.079,0.009,-82.000,-3130.000,4876.000,0.403,0.113,0.230,0.878,3.100,7.750
1699.632,6,6,1.729,4.582,-4.555,4.927,12.933,-0.981,3.593,8.981,-0.605,0.0000000,0.0000000,0.000,0.000,0.000,0.000,0,00:00:00,1008.143,42.868,42.583,-4.271,-0.050,7.341,6.328,-0.070,0.087,0.004,-56.000,-3146.000,4900.000,0.398,0.115,0.237,0.879,3.106,7.766
1699.833,6,6,1.734,4.578,-4.539,4.932,12.946,-0.942,3.486,9.203,-0.606,0.0000000,0.0000000,0.000,0.000,0.000,0.000,0,00:00:00,1008.143,42.870,42.581,-4.273,-0.136,7.499,6.400,-0.145,0.026,-0.096,-113.000,-3122.000,4859.000,0.393,0.116,0.232,0.882,3.135,7.839
1700.034,6,6,1.737,4.578,-4.548,4.932,12.977,-0.950,3.466,9.293,-0.739,0.0000000,0.0000000,0.000,0.000,0.000,0.000,0,00:00:00,1008.148,42.885,42.536,-4.318,-0.144,7.564,6.457,0.009,-0.021,-0.045,38.000,-3183.000,4930.000,0.399,0.115,0.228,0.881,3.165,7.911
1700.235,6,6,1.740,4.579,-4.549,4.948,12.966,-0.959,3.552,9.084,-0.780,0.0000000,0.0000000,0.000,0.000,0.000,0.000,0,00:00:00,1008.147,42.870,42.548,-4.306,-0.158,7.413,6.386,0.060,-0.060,0.143,-92.000,-3163.000,4857.000,0.404,0.110,0.235,0.877,3.090,7.726
1700.436,6,6,1.744,4.579,-4.575,4.973,12.963,-1.009,3.605,9.124,-0.909,0.0000000,0.0000000,0.000,0.000,0.000,0.000,0,00:00:00,1008.153,42.884,42.497,-4.357,-0.136,7.477,6.414,0.126,-0.047,0.047,0.000,-3177.000,4958.000,0.409,0.111,0.234,0.875,3.165,7.911
1700.637,6,6,1.754,4.578,-4.589,5.056,12.943,-0.990,3.913,9.037,-0.625,0.0000000,0.0000000,0.000,0.000,0.000,0.000,0,00:00:00,1008.152,42.877,42.503,-4.351,-0.194,7.477,6.436,-0.111,0.081,0.277,-106.000,-3131.000,4947.000,0.399,0.115,0.257,0.873,3.181,7.952
1700.838,6,6,1.769,4.574,-4.609,5.118,12.926,-0.999,3.842,9.044,-0.740,0.0000000,0.0000000,0.000,0.000,0.000,0.000,0,00:00:00,1008.156,42.882,42.475,-4.379,-0.101,7.492,6.400,0.130,0.053,-0.104,74.000,-3192.000,4942.000,0.404,0.124,0.250,0.871,3.110,7.774
1701.039,6,6,1.784,4.572,-4.621,5.129,12.931,-0.994,3.617,9.151,-0.699,0.0000000,0.0000000,0.000,0.000,0.000,0.000,0,00:00:00,1008.156,42.884,42.473,-4.381,-0.187,7.449,6.465,0.104,0.070,-0.113,-100.000,-3182.000,5027.000,0.403,0.130,0.245,0.872,3.142,7.855
1701.240,6,6,1.794,4.570,-4.625,5.124,12.928,-0.974,3.552,9.104,-0.642,0.0000000,0.0000000,0.000,0.000,0.000,0.000,0,00:00:00,1008.156,42.881,42.475,-4.379,-0.158,7.406,6.407,-0.026,-0.032,-0.070,45.000,-3181.000,4857.000,0.400,0.125,0.240,0.876,3.177,7.944
1701.441,6,6,1.799,4.571,-4.639,5.116,12.960,-1.001,3.554,9.283,-0.845,0.0000000,0.0000000,0.000,0.000,0.000,0.000,0,00:00:00,1008.159,42.873,42.449,-4.405,-0.144,7.621,6.436,0.036,0.017,-0.126,27.000,-3150.000,4894.000,0.403,0.125,0.233,0.876,3.165,7.911
1701.642,6,6,1.801,4.573,-4.639,5.093,12.964,-0.975,3.479,9.148,-0.634,0.0000000,0.0000000,0.000,0.000,0.000,0.000,0,00:00:00,1008.157,42.880,42.468,-4.386,-0.129,7.413,6.421,-0.070,-0.036,-0.015,36.000,-3201.000,4837.000,0.398,0.117,0.233,0.879,3.103,7.758
1701.843,6,6,1.798,4.575,-4.639,5.057,12.959,-0.986,3.408,9.104,-0.817,0.0000000,0.0000000,0.000,0.000,0.000,0.000,0,00:00:00,1008.157,42.862,42.466,-4.388,-0.136,7.441,6.307,0.015,0.002,-0.079,27.000,-3197.000,4978.000,0.402,0.117,0.227,0.879,3.110,7.774
1702.044,6,6,1.793,4.576,-4.641,5.046,12.965,-1.004,3.522,9.167,-0.849,0.0000000,0.0000000,0.000,0.000,0.000,0.000,0,00:00:00,1008.157,42.875,42.464,-4.390,-0.201,7.506,6.386,0.032,0.021,0.087,-132.000,-3125.000,4832.000,0.404,0.118,0.235,0.876,3.165,7.911
1702.245,6,6,1.790,4.577,-4.648,5.065,12.960,-0.995,3.666,9.107,-0.701,0.0000000,0.0000000,0.000,0.000,0.000,0.000,0,00:00:00,1008.158,42.869,42.452,-4.402,-0.151,7.463,6.414,0.000,0.068,0.060,9.000,-3136.000,4868.000,0.401,0.121,0.243,0.875,3.126,7.815
1702.446,6,6,1.788,4.578,-4.645,5.043,12.979,-0.987,3.464,9.236,-0.738,0.0000000,0.0000000,0.000,0.000,0.000,0.000,0,00:00:00,1008.157,42.861,42.466,-4.387,-0.215,7.528,6.414,-0.089,-0.068,-0.092,-24.000,-3134.000,4911.000,0.398,0.117,0.233,0.880,3.148,7.871
1702.647,6,6,1.788,4.581,-4.655,5.072,12.992,-1.019,3.712,9.205,-0.898,0.0000000,0.0000000,0.000,0.000,0.000,0.000,0,00:00:00,1008.159,42.869,42.444,-4.410,-0.201,7.643,6.393,0.075,0.109,0.081,28.000,-3196.000,4880.000,0.404,0.125,0.244,0.873,3.106,7.766
1702.848,6,6,1.792,4.584,-4.671,5.110,12.983,-1.019,3.761,9.105,-0.723,0.0000000,0.0000000,0.000,0.000,0.000,0.000,0,00:00:00,1008.162,42.867,42.422,-4.432,-0.151,7.535,6.386,-0.030,0.079,-0.002,-101.000,-3152.000,4936.000,0.400,0.128,0.249,0.873,3.155,7.887
1703.049,6,6,1.800,4.581,-4.676,5.171,12.929,-0.990,3.897,8.877,-0.617,0.0000000,0.0000000,0.000,0.000,0.000,0.000,0,00:00:00,1008.161,42.867,42.429,-4.425,-0.172,7.362,6.335,-0.004,-0.047,0.194,47.000,-3180.000,4880.000,0.400,0.122,0.261,0.870,3.103,7.758
1703.250,6,6,1.813,4.576,-4.664,5.217,12.929,-0.958,3.847,9.130,-0.639,0.0000000,0.0000000,0.000,0.000,0.000,0.000,0,00:00:00,1008.158,42.867,42.454,-4.400,-0.151,7.528,6.472,0.000,-0.047,-0.070,10.000,-3193.000,4862.000,0.400,0.122,0.252,0.873,3.181,7.952
1703.451,6,6,1.827,4.570,-4.661,5.266,12.889,-0.920,3.890,8.920,-0.553,0.0000000,0.0000000,0.000,0.000,0.000,0.000,0,00:00:00,1008.160,42.867,42.437,-4.417,-0.136,7.406,6.335,-0.064,0.036,0.064,14.000,-3107.000,4824.000,0.396,0.124,0.259,0.872,3.171,7.927
1703.652,6,6,1.844,4.560,-4.667,5.341,12.836,-0.882,4.052,8.838,-0.485,0.0000000,0.0000000,0.000,0.000,0.000,0.000,0,00:00:00,1008.163,42.861,42.410,-4.444,-0.136,7.384,6.342,-0.047,-0.009,0.147,55.000,-3189.000,4921.000,0.396,0.123,0.269,0.870,3.113,7.782
1703.853,6,6,1.862,4.548,-4.681,5.385,12.798,-0.827,3.936,8.890,-0.331,0.0000000,0.0000000,0.000,0.000,0.000,0.000,0,00:00:00,1008.168,42.876,42.373,-4.481,-0.158,7.355,6.364,-0.058,0.145,-0.081,23.000,-3150.000,4862.000,0.390,0.134,0.269,0.870,3.174,7.935
1704.054,6,6,1.880,4.537,-4.671,5.444,12.777,-0.768,4.049,8.951,-0.362,0.0000000,0.0000000,0.000,0.000,0.000,0.000,0,00:00:00,1008.165,42.873,42.401,-4.453,-0.129,7.406,6.465,0.006,-0.089,0.055,-76.000,-3171.000,4901.000,0.393,0.127,0.270,0.870,3.158,7.895
1704.255,6,6,1.899,4.527,-4.660,5.498,12.753,-0.732,4.057,8.913,-0.443,0.0000000,0.0000000,0.000,0.000,0.000,0.000,0,00:00:00,1008.165,42.863,42.400,-4.454,-0.129,7.406,6.421,0.009,-0.064,0.043,-143.000,-3139.000,4842.000,0.396,0.124,0.269,0.869,3.094,7.734
1704.456,6,6,1.918,4.517,-4.671,5.542,12.733,-0.705,4.045,8.919,-0.376,0.0000000,0.0000000,0.000,0.000,0.000,0.000,0,00:00:00,1008.170,42.863,42.352,-4.502,-0.136,7.427,6.393,-0.111,0.017,0.004,66.000,-3180.000,4855.000,0.391,0.126,0.269,0.871,3.148,7.871
1704.657,6,6,1.932,4.510,-4.704,5.549,12.729,-0.720,3.892,8.981,-0.503,0.0000000,0.0000000,0.000,0.000,0.000,0.000,0,00:00:00,1008.178,42.868,42.291,-4.563,-0.129,7.384,6.443,0.113,-0.081,-0.062,-82.000,-3155.000,4829.000,0.398,0.125,0.259,0.871,3.087,7.718
1708.041,6,6,27.224,61.552,-7.871,8.282,18.459,-0.800,4.035,8.990,-0.613,0.0000000,0.0000000,0.000,0.000,0.000,0.000,0,00:00:00,1008.181,42.859,42.265,-4.589,-0.108,7.499,6.421,0.026,-0.023,0.058,-126.000,-3131.000,4918.000,0.400,0.123,0.262,0.869,3.100,7.750
1708.242,6,6,2.451,5.537,-4.747,2.202,4.714,-0.002,3.974,8.929,-0.417,0.0000000,0.0000000,0.000,0.000,0.000,0.000,0,00:00:00,1008.179,42.857,42.282,-4.572,-0.129,7.384,6.414,-0.023,0.107,-0.006,-115.000,-3141.000,4884.000,0.395,0.131,0.267,0.869,3.148,7.871
1708.443,6,6,1.402,3.147,-4.668,2.575,5.665,-0.107,3.778,9.041,-0.635,0.0000000,0.0000000,0.000,0.000,0.000,0.000,0,00:00:00,1008.182,42.858,42.258,-4.596,-0.144,7.470,6.371,0.015,-0.087,-0.147,11.000,-3174.000,4987.000,0.398,0.127,0.251,0.873,3.087,7.718
1708.644,6,6,1.179,2.644,-4.615,3.090,7.023,-0.187,3.623,9.141,-0.516,0.0000000,0.0000000,0.000,0.000,0.000,0.000,0,00:00:00,1008.172,42.856,42.342,-4.512,-0.194,7.456,6.429,-0.102,0.006,-0.085,-36.000,-3183.000,4929.000,0.393,0.126,0.247,0.877,3.142,7.855
1708.845,6,6,1.198,2.711,-4.607,3.624,8.404,-0.291,3.694,9.217,-0.616,0.0000000,0.0000000,0.000,0.000,0.000,0.000,0,00:00:00,1008.173,42.843,42.327,-4.527,-0.144,7.542,6.486,0.028,-0.017,-0.036,21.000,-3189.000,4962.000,0.397,0.123,0.244,0.876,3.142,7.855
1709.046,6,6,1.315,3.010,-4.615,4.129,9.632,-0.390,3.786,9.025,-0.632,0.0000000,0.0000000,0.000,0.000,0.000,0.000,0,00:00:00,1008.173,42.853,42.328,-4.526,-0.093,7.406,6.429,0.068,-0.058,0.083,8.000,-3208.000,4899.000,0.402,0.117,0.248,0.874,3.132,7.831
1709.247,6,6,1.468,3.386,-4.662,4.567,10.677,-0.507,3.831,9.014,-0.693,0.0000000,0.0000000,0.000,0.000,0.000,0.000,0,00:00:00,1008.182,42.853,42.253,-4.601,-0.180,7.506,6.328,-0.055,0.100,0.036,-114.000,-3171.000,4867.000,0.398,0.125,0.255,0.872,3.145,7.863
1709.448,6,6,1.619,3.755,-4.679,4.927,11.530,-0.584,3.897,9.124,-0.666,0.0000000,0.0000000,0.000,0.000,0.000,0.000,0,00:00:00,1008.176,42.856,42.307,-4.547,-0.115,7.585,6.429,-0.053,-0.045,-0.015,-166.000,-3171.000,4930.000,0.398,0.122,0.252,0.874,3.126,7.815
1709.649,6,6,1.747,4.073,-4.717,5.156,12.180,-0.666,3.698,9.198,-0.694,0.0000000,0.0000000,0.000,0.000,0.000,0.000,0,00:00:00,1008.182,42.859,42.258,-4.596,-0.165,7.528,6.486,0.081,0.009,-0.085,-98.000,-3134.000,4835.000,0.401,0.125,0.245,0.874,3.081,7.702
1709.850,6,6,1.844,4.316,-4.757,5.366,12.589,-0.748,4.011,8.975,-0.761,0.0000000,0.0000000,0.000,0.000,0.000,0.000,0,00:00:00,1008.185,42.858,42.233,-4.620,-0.151,7.499,6.400,0.049,-0.079,0.258,29.000,-3216.000,4880.000,0.405,0.117,0.260,0.869,3.090,7.726
1710.051,6,6,1.916,4.485,-4.792,5.500,12.858,-0.813,3.969,9.065,-0.760,0.0000000,0.0000000,0.000,0.000,0.000,0.000,0,00:00:00,1008.186,42.850,42.224,-4.630,-0.151,7.542,6.450,0.023,-0.083,0.038,2.000,-3178.000,4875.000,0.405,0.117,0.256,0.870,3.148,7.871
1710.252,6,6,1.961,4.592,-4.827,5.538,13.018,-0.858,3.735,9.109,-0.717,0.0000000,0.0000000,0.000,0.000,0.000,0.000,0,00:00:00,1008.189,42.848,42.201,-4.653,-0.194,7.506,6.407,0.000,0.053,-0.100,2.000,-3224.000,4942.000,0.401,0.125,0.249,0.873,3.110,7.774
1710.453,6,6,1.984,4.652,-4.861,5.578,13.084,-0.861,3.919,9.042,-0.536,0.0000000,0.0000000,0.000,0.000,0.000,0.000,0,00:00:00,1008.192,42.852,42.174,-4.680,-0.144,7.456,6.465,-0.019,0.017,0.111,-124.000,-3164.000,4857.000,0.398,0.124,0.259,0.871,3.155,7.887
1710.654,6,6,1.996,4.677,-4.873,5.606,13.084,-0.828,3.965,8.966,-0.430,0.0000000,0.0000000,0.000,0.000,0.000,0.000,0,00:00:00,1008.191,42.850,42.183,-4.670,-0.129,7.413,6.429,-0.019,0.087,0.019,14.000,-3229.000,4899.000,0.395,0.129,0.265,0.870,3.097,7.742
1710.855,6,6,2.000,4.680,-4.824,5.593,13.080,-0.752,3.826,9.089,-0.409,0.0000000,0.0000000,0.000,0.000,0.000,0.000,0,00:00:00,1008.177,42.861,42.296,-4.558,-0.223,7.449,6.472,-0.070,-0.023,-0.036,-90.000,-3154.000,4851.000,0.391,0.128,0.261,0.873,3.074,7.685
1711.056,6,6,2.001,4.670,-4.792,5.645,13.023,-0.703,4.192,8.893,-0.442,0.0000000,0.0000000,0.000,0.000,0.000,0.000,0,00:00:00,1008.178,42.858,42.291,-4.563,-0.151,7.463,6.414,0.030,0.045,0.198,0.000,-3171.000,4842.000,0.395,0.130,0.277,0.866,3.174,7.935
1711.257,6,6,2.004,4.649,-4.802,5.668,12.945,-0.721,4.075,8.805,-0.596,0.0000000,0.0000000,0.000,0.000,0.000,0.000,0,00:00:00,1008.186,42.863,42.222,-4.632,-0.129,7.384,6.321,0.068,-0.121,-0.002,64.000,-3221.000,4979.000,0.401,0.126,0.269,0.867,3.174,7.935
1711.458,6,6,2.008,4.624,-4.774,5.702,12.899,-0.729,4.157,8.946,-0.708,0.0000000,0.0000000,0.000,0.000,0.000,0.000,0,00:00:00,1008.177,42.854,42.301,-4.553,-0.223,7.549,6.386,0.023,-0.053,0.124,62.000,-3203.000,4953.000,0.402,0.127,0.273,0.865,3.168,7.919
1711.659,6,6,2.014,4.600,-4.757,5.747,12.852,-0.727,4.231,8.920,-0.614,0.0000000,0.0000000,0.000,0.000,0.000,0.000,0,00:00:00,1008.176,42.840,42.305,-4.549,0.014,7.542,6.400,0.032,0.019,-0.100,-92.000,-3217.000,4892.000,0.402,0.129,0.267,0.866,3.158,7.895
1711.860,6,6,2.019,4.578,-4.776,5.723,12.828,-0.736,3.904,9.003,-0.539,0.0000000,0.0000000,0.000,0.000,0.000,0.000,0,00:00:00,1008.184,42.858,42.242,-4.612,-0.208,7.456,6.400,-0.064,0.009,-0.043,-123.000,-3137.000,4794.000,0.396,0.131,0.264,0.870,3.132,7.831
1712.061,6,6,2.019,4.562,-4.813,5.704,12.827,-0.764,3.933,9.093,-0.574,0.0000000,0.0000000,0.000,0.000,0.000,0.000,0,00:00:00,1008.190,42.848,42.184,-4.669,-0.115,7.535,6.457,0.017,-0.023,-0.077,46.000,-3216.000,4876.000,0.398,0.129,0.258,0.871,3.177,7.944
1712.262,6,6,2.017,4.551,-4.813,5.681,12.826,-0.754,3.906,9.071,-0.540,0.0000000,0.0000000,0.000,0.000,0.000,0.000,0,00:00:00,1008.184,42.846,42.235,-4.618,-0.129,7.492,6.457,0.017,0.043,-0.026,-108.000,-3144.000,4751.000,0.398,0.130,0.259,0.871,3.113,7.782
1712.463,6,6,2.013,4.544,-4.804,5.685,12.826,-0.754,4.037,9.066,-0.617,0.0000000,0.0000000,0.000,0.000,0.000,0.000,0,00:00:00,1008.182,42.843,42.254,-4.600,-0.194,7.571,6.443,-0.026,-0.036,0.117,82.000,-3183.000,4875.000,0.398,0.127,0.265,0.869,3.168,7.919
1712.664,6,6,2.015,4.538,-4.761,5.735,12.805,-0.713,4.272,8.952,-0.528,0.0000000,0.0000000,0.000,0.000,0.000,0.000,0,00:00:00,1008.172,42.852,42.335,-4.519,-0.136,7.528,6.479,0.092,0.079,0.143,60.000,-3204.000,4921.000,0.400,0.132,0.279,0.863,3.119,7.798
1712.865,6,6,2.021,4.529,-4.658,5.775,12.747,-0.601,4.231,8.749,-0.347,0.0000000,0.0000000,0.000,0.000,0.000,0.000,0,00:00:00,1008.153,42.844,42.496,-4.358,-0.129,7.377,6.335,-0.081,0.077,0.021,85.000,-3179.000,4904.000,0.393,0.137,0.284,0.864,3.168,7.919
1713.066,6,6,2.028,4.519,-4.573,5.768,12.749,-0.524,4.013,9.032,-0.375,0.0000000,0.0000000,0.000,0.000,0.000,0.000,0,00:00:00,1008.149,42.840,42.532,-4.322,-0.165,7.477,6.472,0.015,0.009,-0.183,-126.000,-3168.000,4913.000,0.392,0.139,0.271,0.868,3.139,7.847
1713.267,6,6,2.033,4.512,-4.531,5.793,12.723,-0.509,4.180,8.877,-0.490,0.0000000,0.0000000,0.000,0.000,0.000,0.000,0,00:00:00,1008.152,42.848,42.509,-4.345,-0.136,7.434,6.421,0.072,-0.098,0.130,34.000,-3196.000,4858.000,0.399,0.130,0.276,0.865,3.071,7.677
1713.468,6,6,2.038,4.507,-4.506,5.797,12.745,-0.534,4.088,9.105,-0.620,0.0000000,0.0000000,0.000,0.000,0.000,0.000,0,00:00:00,1008.151,42.844,42.512,-4.342,-0.194,7.621,6.472,-0.040,-0.096,-0.043,92.000,-3197.000,4884.000,0.398,0.128,0.267,0.868,3.139,7.847
1713.669,6,6,2.043,4.504,-4.464,5.827,12.735,-0.545,4.227,8.939,-0.638,0.0000000,0.0000000,0.000,0.000,0.000,0.000,0,00:00:00,1008.143,42.839,42.582,-4.272,-0.151,7.564,6.400,0.070,0.055,0.096,25.000,-3159.000,4788.000,0.401,0.133,0.275,0.863,3.171,7.927
1713.870,6,6,2.049,4.501,-4.457,5.840,12.718,-0.558,4.154,8.897,-0.521,0.0000000,0.0000000,0.000,0.000,0.000,0.000,0,00:00:00,1008.147,42.849,42.548,-4.306,-0.144,7.470,6.393,-0.060,-0.072,0.026,61.000,-3201.000,4866.000,0.397,0.128,0.274,0.866,3.094,7.734
1714.071,6,6,2.055,4.496,-4.463,5.856,12.696,-0.579,4.185,8.864,-0.517,0.0000000,0.0000000,0.000,0.000,0.000,0.000,0,00:00:00,1008.149,42.853,42.529,-4.325,-0.144,7.485,6.350,-0.087,-0.058,0.064,-136.000,-3146.000,4903.000,0.395,0.126,0.275,0.867,3.103,7.758
1714.272,6,6,2.062,4.489,-4.456,5.886,12.649,-0.573,4.264,8.725,-0.441,0.0000000,0.0000000,0.000,0.000,0.000,0.000,0,00:00:00,1008.146,42.844,42.553,-4.301,-0.079,7.398,6.307,-0.026,0.023,0.068,-146.000,-3142.000,4951.000,0.395,0.129,0.280,0.865,3.097,7.742
1714.473,6,6,2.068,4.481,-4.469,5.877,12.647,-0.592,4.078,8.936,-0.498,0.0000000,0.0000000,0.000,0.000,0.000,0.000,0,00:00:00,1008.151,42.847,42.518,-4.336,-0.201,7.434,6.436,0.043,-0.083,-0.002,-153.000,-3151.000,4910.000,0.397,0.128,0.273,0.867,3.152,7.879
1714.674,6,6,2.071,4.477,-4.482,5.881,12.655,-0.647,4.154,8.975,-0.700,0.0000000,0.0000000,0.000,0.000,0.000,0.000,0,00:00:00,1008.151,42.833,42.513,-4.341,-0.180,7.564,6.407,0.051,-0.104,0.062,36.000,-3146.000,4859.000,0.402,0.126,0.270,0.866,3.171,7.927
1714.875,6,6,2.072,4.476,-4.495,5.867,12.676,-0.695,4.066,9.038,-0.708,0.0000000,0.0000000,0.000,0.000,0.000,0.000,0,00:00:00,1008.151,42.843,42.513,-4.341,-0.151,7.592,6.407,-0.011,-0.034,-0.047,47.000,-3179.000,4890.000,0.401,0.127,0.264,0.868,3.181,7.952
1715.076,6,6,2.070,4.479,-4.488,5.830,12.714,-0.691,3.947,9.128,-0.544,0.0000000,0.0000000,0.000,0.000,0.000,0.000,0,00:00:00,1008.146,42.844,42.553,-4.301,-0.115,7.520,6.529,0.051,0.043,-0.092,44.000,-3147.000,4892.000,0.400,0.131,0.259,0.870,3.177,7.944
1715.277,6,6,2.064,4.484,-4.470,5.802,12.727,-0.667,3.984,9.011,-0.473,0.0000000,0.0000000,0.000,0.000,0.000,0.000,0,00:00:00,1008.143,42.830,42.580,-4.274,-0.122,7.456,6.457,-0.060,-0.034,0.053,41.000,-3176.000,4933.000,0.396,0.125,0.263,0.871,3.087,7.718
1715.478,6,6,2.059,4.487,-4.480,5.807,12.711,-0.678,4.132,8.875,-0.537,0.0000000,0.0000000,0.000,0.000,0.000,0.000,0,00:00:00,1008.149,42.839,42.533,-4.321,-0.129,7.463,6.357,0.023,0.072,0.094,-125.000,-3086.000,4883.000,0.398,0.130,0.272,0.866,3.177,7.944
1715.679,6,6,2.053,4.490,-4.500,5.759,12.746,-0.686,3.862,9.139,-0.493,0.0000000,0.0000000,0.000,0.000,0.000,0.000,0,00:00:00,1008.152,42.845,42.503,-4.351,-0.187,7.477,6.536,0.055,-0.034,-0.136,-146.000,-3131.000,4874.000,0.397,0.131,0.260,0.870,3.177,7.944
1715.880,6,6,2.046,4.497,-4.524,5.748,12.777,-0.735,4.024,9.130,-0.701,0.0000000,0.0000000,0.000,0.000,0.000,0.000,0,00:00:00,1008.155,42.833,42.480,-4.374,-0.194,7.635,6.457,0.019,-0.034,0.066,-126.000,-3153.000,4918.000,0.400,0.129,0.263,0.868,3.177,7.944
1716.081,6,6,2.037,4.505,-4.557,5.703,12.822,-0.770,3.843,9.213,-0.629,0.0000000,0.0000000,0.000,0.000,0.000,0.000,0,00:00:00,1008.159,42.843,42.448,-4.406,-0.180,7.599,6.500,-0.038,-0.043,-0.100,-93.000,-3131.000,4918.000,0.398,0.127,0.253,0.873,3.094,7.734
1716.282,6,6,2.026,4.515,-4.575,5.659,12.841,-0.798,3.828,9.105,-0.679,0.0000000,0.0000000,0.000,0.000,0.000,0.000,0,00:00:00,1008.158,42.832,42.457,-4.397,-0.151,7.571,6.378,-0.060,0.000,-0.034,45.000,-3170.000,4936.000,0.397,0.126,0.252,0.873,3.074,7.685
1716.483,6,6,2.015,4.521,-4.587,5.644,12.812,-0.816,3.947,8.881,-0.663,0.0000000,0.0000000,0.000,0.000,0.000,0.000,0,00:00:00,1008.158,42.821,42.457,-4.397,-0.151,7.441,6.285,-0.011,0.013,0.126,15.000,-3175.000,4970.000,0.399,0.125,0.262,0.870,3.094,7.734
1716.684,6,6,2.003,4.522,-4.569,5.583,12.800,-0.821,3.692,8.964,-0.729,0.0000000,0.0000000,0.000,0.000,0.000,0.000,0,00:00:00,1008.151,42.827,42.518,-4.336,-0.165,7.384,6.321,0.117,0.000,-0.143,32.000,-3181.000,4961.000,0.403,0.130,0.250,0.871,3.090,7.726
1716.885,6,6,1.988,4.524,-4.588,5.517,12.840,-0.882,3.642,9.226,-0.890,0.0000000,0.0000000,0.000,0.000,0.000,0.000,0,00:00:00,1008.158,42.829,42.459,-4.395,-0.230,7.578,6.457,0.124,-0.023,-0.062,-150.000,-3130.000,4925.000,0.407,0.129,0.243,0.871,3.074,7.685
1717.086,6,6,1.968,4.531,-4.602,5.435,12.886,-0.927,3.521,9.276,-0.865,0.0000000,0.0000000,0.000,0.000,0.000,0.000,0,00:00:00,1008.157,42.832,42.464,-4.389,-0.215,7.585,6.450,-0.019,-0.070,-0.083,-138.000,-3139.000,4885.000,0.404,0.123,0.235,0.875,3.097,7.742
1717.287,6,6,1.947,4.539,-4.589,5.376,12.893,-0.942,3.591,9.092,-0.851,0.0000000,0.0000000,0.000,0.000,0.000,0.000,0,00:00:00,1008.150,42.822,42.522,-4.332,-0.115,7.456,6.378,0.062,-0.064,0.030,-128.000,-3154.000,4912.000,0.407,0.116,0.235,0.875,3.158,7.895
1717.488,6,6,1.927,4.545,-4.579,5.336,12.911,-0.945,3.645,9.162,-0.780,0.0000000,0.0000000,0.000,0.000,0.000,0.000,0,00:00:00,1008.149,42.824,42.528,-4.326,-0.158,7.528,6.414,-0.060,0.011,0.045,-124.000,-3133.000,4868.000,0.402,0.116,0.239,0.876,3.165,7.911
1717.689,6,6,1.909,4.550,-4.554,5.293,12.896,-0.944,3.597,9.008,-0.826,0.0000000,0.0000000,0.000,0.000,0.000,0.000,0,00:00:00,1008.144,42.827,42.575,-4.279,-0.144,7.420,6.299,0.000,-0.072,0.034,5.000,-3162.000,4943.000,0.404,0.113,0.237,0.876,3.184,7.960
1717.890,6,6,1.892,4.552,-4.552,5.261,12.892,-0.992,3.617,9.066,-0.996,0.0000000,0.0000000,0.000,0.000,0.000,0.000,0,00:00:00,1008.146,42.823,42.553,-4.301,-0.136,7.556,6.256,0.015,0.034,-0.038,-131.000,-3157.000,4958.000,0.406,0.118,0.235,0.875,3.171,7.927
1718.091,6,6,1.880,4.554,-4.576,5.261,12.913,-1.002,3.756,9.192,-0.729,0.0000000,0.0000000,0.000,0.000,0.000,0.000,0,00:00:00,1008.152,42.836,42.503,-4.351,-0.151,7.571,6.465,-0.009,0.147,0.047,-125.000,-3190.000,4942.000,0.402,0.125,0.246,0.873,3.090,7.726
1718.292,6,6,1.871,4.557,-4.593,5.239,12.917,-1.021,3.621,9.113,-0.809,0.0000000,0.0000000,0.000,0.000,0.000,0.000,0,00:00:00,1008.153,42.811,42.498,-4.356,-0.151,7.485,6.386,0.036,-0.092,-0.043,-106.000,-3077.000,4890.000,0.404,0.119,0.239,0.875,3.081,7.702
1718.493,6,6,1.864,4.558,-4.611,5.251,12.910,-1.040,3.784,9.065,-0.822,0.0000000,0.0000000,0.000,0.000,0.000,0.000,0,00:00:00,1008.155,42.819,42.483,-4.371,-0.079,7.528,6.364,0.032,0.051,0.019,39.000,-3164.000,4890.000,0.405,0.121,0.244,0.873,3.158,7.895
1718.694,6,6,1.862,4.556,-4.623,5.273,12.872,-1.068,3.827,8.902,-0.908,0.0000000,0.0000000,0.000,0.000,0.000,0.000,0,00:00:00,1008.154,42.826,42.486,-4.368,-0.129,7.441,6.271,0.036,-0.109,0.147,-146.000,-3077.000,4966.000,0.408,0.114,0.248,0.871,3.194,7.984
1718.895,6,6,1.861,4.553,-4.625,5.253,12.868,-1.054,3.615,9.069,-0.744,0.0000000,0.0000000,0.000,0.000,0.000,0.000,0,00:00:00,1008.153,42.813,42.497,-4.357,-0.223,7.413,6.393,0.015,0.032,-0.036,-141.000,-3156.000,4909.000,0.403,0.121,0.245,0.873,3.168,7.919
1719.096,6,6,1.858,4.549,-4.636,5.236,12.860,-1.030,3.620,9.038,-0.643,0.0000000,0.0000000,0.000,0.000,0.000,0.000,0,00:00:00,1008.156,42.815,42.471,-4.383,-0.180,7.413,6.342,-0.107,-0.017,-0.006,-133.000,-3171.000,4886.000,0.397,0.119,0.244,0.877,3.116,7.790
1719.297,6,6,1.856,4.547,-4.654,5.247,12.859,-1.027,3.762,9.068,-0.715,0.0000000,0.0000000,0.000,0.000,0.000,0.000,0,00:00:00,1008.160,42.821,42.441,-4.413,-0.136,7.520,6.350,-0.013,0.047,0.013,-166.000,-3139.000,4875.000,0.399,0.122,0.247,0.874,3.081,7.702
1719.498,6,6,1.857,4.544,-4.668,5.276,12.847,-1.042,3.849,9.012,-0.820,0.0000000,0.0000000,0.000,0.000,0.000,0.000,0,00:00:00,1008.161,42.810,42.433,-4.421,-0.158,7.513,6.342,0.066,-0.026,0.092,-133.000,-3159.000,4883.000,0.405,0.121,0.252,0.871,3.181,7.952
1722.890,6,6,26.063,62.440,-8.996,7.905,18.676,-1.029,3.857,9.103,-0.790,0.0000000,0.0000000,0.000,0.000,0.000,0.000,0,00:00:00,1008.178,42.807,42.290,-4.564,-0.151,7.564,6.414,0.043,0.040,-0.017,23.000,-3138.000,4973.000,0.404,0.126,0.252,0.870,3.171,7.927
1723.091,6,6,2.337,5.594,-4.781,2.089,4.742,0.001,3.768,8.962,-0.769,0.0000000,0.0000000,0.000,0.000,0.000,0.000,0,00:00:00,1008.176,42.794,42.309,-4.545,-0.086,7.456,6.285,0.011,0.049,-0.104,-113.000,-3129.000,4943.000,0.403,0.128,0.248,0.872,3.165,7.911
1723.292,6,6,1.336,3.178,-4.674,2.459,5.705,-0.147,3.668,9.140,-0.893,0.0000000,0.0000000,0.000,0.000,0.000,0.000,0,00:00:00,1008.179,42.801,42.279,-4.575,-0.251,7.571,6.357,-0.004,-0.070,0.021,-196.000,-3150.000,4897.000,0.404,0.124,0.245,0.873,3.087,7.718
1723.493,6,6,1.126,2.666,-4.664,2.983,7.039,-0.287,3.621,9.035,-0.773,0.0000000,0.0000000,0.000,0.000,0.000,0.000,0,00:00:00,1008.182,42.810,42.255,-4.599,-0.144,7.434,6.328,0.030,0.036,-0.075,-111.000,-3149.000,4979.000,0.403,0.126,0.242,0.873,3.113,7.782
1723.694,6,6,1.149,2.725,-4.649,3.507,8.393,-0.430,3.602,9.095,-0.866,0.0000000,0.0000000,0.000,0.000,0.000,0.000,0,00:00:00,1008.173,42.799,42.328,-4.526,-0.172,7.477,6.364,0.085,-0.026,-0.017,-129.000,-3111.000,4941.000,0.406,0.123,0.240,0.873,3.116,7.790
1723.895,6,6,1.265,3.020,-4.658,3.978,9.645,-0.573,3.565,9.149,-0.921,0.0000000,0.0000000,0.000,0.000,0.000,0.000,0,00:00:00,1008.173,42.806,42.331,-4.523,-0.215,7.549,6.342,0.000,0.006,-0.028,19.000,-3190.000,4939.000,0.405,0.124,0.238,0.874,3.148,7.871
1724.096,6,6,1.411,3.396,-4.676,4.369,10.718,-0.667,3.535,9.164,-0.748,0.0000000,0.0000000,0.000,0.000,0.000,0.000,0,00:00:00,1008.173,42.804,42.333,-4.521,-0.172,7.499,6.386,-0.079,-0.006,-0.043,-56.000,-3186.000,4971.000,0.400,0.121,0.236,0.877,3.148,7.871
1724.297,6,6,1.554,3.768,-4.700,4.720,11.570,-0.769,3.764,9.132,-0.871,0.0000000,0.0000000,0.000,0.000,0.000,0.000,0,00:00:00,1008.174,42.796,42.323,-4.531,-0.151,7.578,6.393,0.098,0.060,0.081,-21.000,-3184.000,4937.000,0.406,0.124,0.245,0.872,3.106,7.766
1724.498,6,6,1.683,4.083,-4.719,5.051,12.163,-0.826,4.112,8.931,-0.745,0.0000000,0.0000000,0.000,0.000,0.000,0.000,0,00:00:00,1008.173,42.787,42.330,-4.524,-0.180,7.542,6.350,-0.051,0.019,0.292,-172.000,-3126.000,4882.000,0.403,0.122,0.267,0.867,3.171,7.927
1724.699,6,6,1.792,4.322,-4.739,5.313,12.583,-0.853,4.182,9.037,-0.650,0.0000000,0.0000000,0.000,0.000,0.000,0.000,0,00:00:00,1008.175,42.794,42.316,-4.538,-0.201,7.599,6.465,-0.011,-0.011,0.104,-43.000,-3173.000,4848.000,0.400,0.126,0.272,0.866,3.152,7.879
1724.900,6,6,1.878,4.485,-4.755,5.504,12.805,-0.853,4.188,8.829,-0.561,0.0000000,0.0000000,0.000,0.000,0.000,0.000,0,00:00:00,1008.176,42.799,42.305,-4.549,-0.158,7.441,6.357,0.002,-0.013,0.094,-134.000,-3181.000,4951.000,0.399,0.128,0.276,0.865,3.097,7.742
1725.101,6,6,1.941,4.584,-4.779,5.610,12.955,-0.849,4.044,9.045,-0.520,0.0000000,0.0000000,0.000,0.000,0.000,0.000,0,00:00:00,1008.181,42.794,42.267,-4.587,-0.165,7.549,6.436,-0.096,-0.047,-0.094,-135.000,-3152.000,4886.000,0.395,0.128,0.266,0.870,3.155,7.887
1725.302,6,6,1.983,4.638,-4.786,5.680,13.014,-0.832,4.060,8.983,-0.520,0.0000000,0.0000000,0.000,0.000,0.000,0.000,0,00:00:00,1008.179,42.791,42.278,-4.576,-0.165,7.520,6.393,-0.036,0.023,0.026,-60.000,-3203.000,5023.000,0.395,0.130,0.269,0.869,3.158,7.895
1725.503,6,6,2.011,4.658,-4.814,5.740,13.002,-0.823,4.154,8.867,-0.479,0.0000000,0.0000000,0.000,0.000,0.000,0.000,0,00:00:00,1008.187,42.786,42.217,-4.637,-0.201,7.449,6.371,0.013,0.047,0.124,-128.000,-3123.000,4915.000,0.395,0.134,0.279,0.865,3.158,7.895
1725.704,6,6,2.028,4.657,-4.804,5.751,12.987,-0.791,4.002,8.991,-0.497,0.0000000,0.0000000,0.000,0.000,0.000,0.000,0,00:00:00,1008.180,42.790,42.270,-4.584,-0.180,7.441,6.457,0.096,-0.023,-0.098,-105.000,-3118.000,4988.000,0.398,0.136,0.270,0.866,3.145,7.863
1725.905,6,6,2.037,4.643,-4.811,5.780,12.934,-0.736,4.146,8.860,-0.287,0.0000000,0.0000000,0.000,0.000,0.000,0.000,0,00:00:00,1008.185,42.800,42.230,-4.624,-0.115,7.427,6.371,-0.087,0.211,-0.030,-135.000,-3132.000,4810.000,0.390,0.145,0.280,0.865,3.177,7.944
1726.106,6,6,2.045,4.622,-4.786,5.805,12.883,-0.685,4.171,8.886,-0.387,0.0000000,0.0000000,0.000,0.000,0.000,0.000,0,00:00:00,1008.179,42.787,42.282,-4.572,-0.122,7.477,6.371,-0.058,-0.075,-0.021,-10.000,-3199.000,4940.000,0.392,0.136,0.277,0.867,3.071,7.677
1726.307,6,6,2.052,4.597,-4.794,5.840,12.812,-0.627,4.244,8.772,-0.189,0.0000000,0.0000000,0.000,0.000,0.000,0.000,0,00:00:00,1008.186,42.794,42.219,-4.635,-0.072,7.370,6.378,-0.111,0.040,0.030,-118.000,-3148.000,4915.000,0.387,0.135,0.283,0.867,3.145,7.863
1726.508,6,6,2.060,4.571,-4.766,5.881,12.762,-0.571,4.303,8.846,-0.289,0.0000000,0.0000000,0.000,0.000,0.000,0.000,0,00:00:00,1008.180,42.794,42.276,-4.578,-0.215,7.492,6.378,-0.089,0.023,0.089,7.000,-3183.000,4915.000,0.387,0.137,0.290,0.864,3.174,7.935
1726.709,6,6,2.069,4.548,-4.770,5.918,12.720,-0.554,4.305,8.852,-0.335,0.0000000,0.0000000,0.000,0.000,0.000,0.000,0,00:00:00,1008.186,42.799,42.223,-4.631,-0.201,7.520,6.357,-0.064,0.019,-0.011,-107.000,-3163.000,4899.000,0.388,0.141,0.289,0.863,3.168,7.919
1726.910,6,6,2.077,4.527,-4.755,5.904,12.697,-0.521,4.075,8.911,-0.307,0.0000000,0.0000000,0.000,0.000,0.000,0.000,0,00:00:00,1008.182,42.800,42.255,-4.599,-0.136,7.413,6.414,0.077,0.062,-0.202,-135.000,-3121.000,4827.000,0.391,0.146,0.278,0.865,3.181,7.952
1727.111,6,6,2.081,4.511,-4.716,5.916,12.680,-0.477,4.206,8.916,-0.316,0.0000000,0.0000000,0.000,0.000,0.000,0.000,0,00:00:00,1008.175,42.807,42.315,-4.539,-0.180,7.485,6.421,-0.066,0.004,0.049,-114.000,-3125.000,4880.000,0.390,0.142,0.284,0.864,3.113,7.782
1727.312,6,6,2.087,4.497,-4.663,5.960,12.636,-0.422,4.384,8.753,-0.284,0.0000000,0.0000000,0.000,0.000,0.000,0.000,0,00:00:00,1008.168,42.803,42.374,-4.480,-0.172,7.441,6.364,-0.083,-0.034,0.151,0.000,-3114.000,4830.000,0.389,0.137,0.294,0.862,3.177,7.944
1727.513,6,6,2.096,4.483,-4.640,5.996,12.606,-0.416,4.366,8.798,-0.383,0.0000000,0.0000000,0.000,0.000,0.000,0.000,0,00:00:00,1008.171,42.792,42.350,-4.504,-0.187,7.513,6.335,0.004,0.068,-0.036,55.000,-3171.000,4958.000,0.391,0.145,0.293,0.860,3.116,7.790
1727.714,6,6,2.108,4.468,-4.615,6.060,12.549,-0.410,4.524,8.635,-0.384,0.0000000,0.0000000,0.000,0.000,0.000,0.000,0,00:00:00,1008.167,42.789,42.377,-4.477,-0.165,7.477,6.263,-0.034,0.023,0.111,-129.000,-3121.000,4924.000,0.393,0.145,0.302,0.856,3.177,7.944
1727.915,6,6,2.122,4.454,-4.602,6.086,12.535,-0.406,4.363,8.822,-0.342,0.0000000,0.0000000,0.000,0.000,0.000,0.000,0,00:00:00,1008.168,42.806,42.372,-4.482,-0.194,7.470,6.414,0.017,-0.058,-0.062,27.000,-3173.000,4901.000,0.393,0.144,0.294,0.859,3.142,7.855
1728.116,6,6,2.132,4.446,-4.594,6.084,12.549,-0.415,4.246,8.941,-0.394,0.0000000,0.0000000,0.000,0.000,0.000,0.000,0,00:00:00,1008.168,42.791,42.376,-4.478,-0.201,7.528,6.436,0.015,0.000,-0.104,-162.000,-3083.000,4913.000,0.393,0.146,0.286,0.862,3.174,7.935
1728.317,6,6,2.139,4.441,-4.616,6.103,12.546,-0.469,4.363,8.850,-0.527,0.0000000,0.0000000,0.000,0.000,0.000,0.000,0,00:00:00,1008.174,42.808,42.322,-4.532,-0.144,7.564,6.357,0.017,-0.047,0.026,-101.000,-3146.000,4848.000,0.397,0.141,0.286,0.860,3.174,7.935
1728.518,6,6,2.142,4.439,-4.632,6.056,12.580,-0.523,4.039,9.027,-0.587,0.0000000,0.0000000,0.000,0.000,0.000,0.000,0,00:00:00,1008.173,42.789,42.328,-4.526,-0.230,7.571,6.386,-0.049,-0.083,-0.147,-113.000,-3089.000,4807.000,0.396,0.138,0.271,0.866,3.135,7.839
1728.719,6,6,2.137,4.444,-4.661,5.996,12.627,-0.575,3.970,9.107,-0.576,0.0000000,0.0000000,0.000,0.000,0.000,0.000,0,00:00:00,1008.177,42.797,42.298,-4.556,-0.165,7.607,6.414,-0.075,-0.036,-0.115,4.000,-3189.000,4856.000,0.395,0.135,0.262,0.870,3.155,7.887
1728.920,6,6,2.125,4.452,-4.650,5.911,12.663,-0.620,3.816,9.065,-0.726,0.0000000,0.0000000,0.000,0.000,0.000,0.000,0,00:00:00,1008.168,42.798,42.370,-4.484,-0.201,7.549,6.342,0.055,0.017,-0.096,-145.000,-3139.000,4869.000,0.400,0.136,0.256,0.870,3.135,7.839
1729.121,6,6,2.106,4.462,-4.634,5.833,12.698,-0.641,3.816,9.075,-0.658,0.0000000,0.0000000,0.000,0.000,0.000,0.000,0,00:00:00,1008.164,42.798,42.403,-4.451,-0.115,7.528,6.378,-0.032,-0.013,-0.089,-111.000,-3130.000,4884.000,0.399,0.131,0.252,0.872,3.074,7.685
1729.322,6,6,2.086,4.472,-4.650,5.777,12.723,-0.710,3.883,9.053,-0.801,0.0000000,0.0000000,0.000,0.000,0.000,0.000,0,00:00:00,1008.170,42.795,42.356,-4.498,-0.144,7.542,6.386,0.107,-0.017,0.038,-175.000,-3159.000,4938.000,0.405,0.128,0.254,0.869,3.181,7.952
1729.523,6,6,2.063,4.481,-4.642,5.673,12.737,-0.773,3.602,9.012,-0.918,0.0000000,0.0000000,0.000,0.000,0.000,0.000,0,00:00:00,1008.163,42.775,42.412,-4.442,-0.172,7.456,6.278,0.068,-0.058,-0.134,-136.000,-3107.000,4889.000,0.407,0.126,0.241,0.872,3.168,7.919
1729.724,6,6,2.038,4.489,-4.654,5.623,12.758,-0.816,3.820,9.064,-0.781,0.0000000,0.0000000,0.000,0.000,0.000,0.000,0,00:00:00,1008.166,42.787,42.387,-4.467,-0.165,7.520,6.386,0.006,0.068,0.089,65.000,-3162.000,4896.000,0.404,0.127,0.252,0.870,3.145,7.863
1729.925,6,6,2.017,4.497,-4.656,5.583,12.790,-0.854,3.827,9.136,-0.829,0.0000000,0.0000000,0.000,0.000,0.000,0.000,0,00:00:00,1008.164,42.778,42.410,-4.444,-0.158,7.585,6.421,0.011,-0.083,0.006,31.000,-3158.000,4826.000,0.405,0.122,0.248,0.872,3.148,7.871
1730.126,6,6,1.996,4.505,-4.673,5.510,12.789,-0.895,3.618,8.986,-0.814,0.0000000,0.0000000,0.000,0.000,0.000,0.000,0,00:00:00,1008.167,42.782,42.383,-4.471,-0.129,7.463,6.228,-0.062,0.053,-0.149,31.000,-3224.000,4857.000,0.401,0.126,0.241,0.875,3.152,7.879
1730.327,6,6,1.974,4.511,-4.720,5.449,12.813,-0.937,3.636,9.119,-0.738,0.0000000,0.0000000,0.000,0.000,0.000,0.000,0,00:00:00,1008.176,42.793,42.309,-4.545,-0.158,7.492,6.386,0.004,0.019,-0.011,-106.000,-3111.000,4900.000,0.401,0.125,0.242,0.875,3.084,7.710
1730.528,6,6,1.955,4.516,-4.765,5.436,12.804,-0.975,3.838,8.967,-0.757,0.0000000,0.0000000,0.000,0.000,0.000,0.000,0,00:00:00,1008.179,42.793,42.277,-4.577,-0.180,7.434,6.357,0.081,0.002,0.177,-94.000,-3106.000,4887.000,0.405,0.123,0.255,0.870,3.077,7.694
1730.729,6,6,1.941,4.519,-4.779,5.414,12.816,-0.962,3.763,9.079,-0.631,0.0000000,0.0000000,0.000,0.000,0.000,0.000,0,00:00:00,1008.176,42.787,42.305,-4.549,-0.180,7.470,6.414,-0.019,0.070,-0.075,-160.000,-3114.000,4914.000,0.399,0.129,0.253,0.872,3.145,7.863
1730.930,6,6,1.930,4.521,-4.756,5.412,12.809,-0.925,3.847,8.992,-0.629,0.0000000,0.0000000,0.000,0.000,0.000,0.000,0,00:00:00,1008.169,42.780,42.368,-4.486,-0.172,7.427,6.393,0.015,-0.058,0.087,-105.000,-3156.000,4873.000,0.400,0.124,0.257,0.871,3.181,7.952
1731.131,6,6,1.924,4.523,-4.749,5.416,12.822,-0.906,3.857,9.089,-0.641,0.0000000,0.0000000,0.000,0.000,0.000,0.000,0,00:00:00,1008.171,42.805,42.348,-4.506,-0.165,7.513,6.436,0.004,0.004,-0.017,-135.000,-3146.000,4921.000,0.399,0.125,0.255,0.872,3.129,7.823
1731.332,6,6,1.918,4.525,-4.730,5.393,12.811,-0.877,3.714,8.978,-0.620,0.0000000,0.0000000,0.000,0.000,0.000,0.000,0,00:00:00,1008.168,42.780,42.376,-4.478,-0.165,7.427,6.292,-0.017,0.141,-0.130,-150.000,-3117.000,4886.000,0.397,0.135,0.253,0.872,3.084,7.710
1731.533,6,6,1.914,4.524,-4.765,5.393,12.801,-0.920,3.820,8.980,-0.774,0.0000000,0.0000000,0.000,0.000,0.000,0.000,0,00:00:00,1008.180,42.784,42.275,-4.579,-0.144,7.492,6.299,0.030,-0.077,0.023,36.000,-3198.000,4938.000,0.402,0.127,0.252,0.871,3.077,7.694
1731.734,6,6,1.911,4.525,-4.796,5.409,12.824,-0.948,3.893,9.143,-0.742,0.0000000,0.0000000,0.000,0.000,0.000,0.000,0,00:00:00,1008.182,42.777,42.256,-4.598,-0.237,7.585,6.457,0.051,0.051,0.070,-125.000,-3097.000,4892.000,0.402,0.131,0.259,0.868,3.097,7.742
1731.935,6,6,1.910,4.527,-4.811,5.392,12.827,-0.989,3.729,9.051,-0.899,0.0000000,0.0000000,0.000,0.000,0.000,0.000,0,00:00:00,1008.180,42.787,42.273,-4.581,-0.223,7.513,6.335,0.083,-0.104,-0.049,-105.000,-3157.000,4964.000,0.407,0.127,0.249,0.870,3.181,7.952
1732.136,6,6,1.907,4.528,-4.847,5.381,12.834,-1.029,3.751,9.073,-0.836,0.0000000,0.0000000,0.000,0.000,0.000,0.000,0,00:00:00,1008.186,42.775,42.218,-4.636,-0.165,7.556,6.321,-0.045,0.034,-0.055,-135.000,-3127.000,4828.000,0.403,0.128,0.248,0.872,3.181,7.952
1732.337,6,6,1.902,4.532,-4.877,5.345,12.870,-1.078,3.619,9.227,-0.944,0.0000000,0.0000000,0.000,0.000,0.000,0.000,0,00:00:00,1008.188,42.786,42.209,-4.645,-0.187,7.607,6.421,0.109,-0.030,-0.100,19.000,-3213.000,4903.000,0.408,0.127,0.239,0.872,3.168,7.919
1732.538,6,6,1.896,4.539,-4.892,5.321,12.895,-1.077,3.665,9.182,-0.772,0.0000000,0.0000000,0.000,0.000,0.000,0.000,0,00:00:00,1008.186,42.784,42.219,-4.635,-0.108,7.556,6.421,-0.051,0.030,-0.049,-127.000,-3140.000,4872.000,0.402,0.124,0.239,0.875,3.074,7.685
1732.739,6,6,1.886,4.546,-4.880,5.266,12.923,-1.085,3.489,9.212,-0.919,0.0000000,0.0000000,0.000,0.000,0.000,0.000,0,00:00:00,1008.181,42.777,42.265,-4.589,-0.101,7.592,6.342,0.017,0.036,-0.202,46.000,-3192.000,4874.000,0.404,0.125,0.228,0.877,3.165,7.911
1732.940,6,6,1.870,4.553,-4.878,5.166,12.924,-1.064,3.235,9.096,-0.738,0.0000000,0.0000000,0.000,0.000,0.000,0.000,0,00:00:00,1008.182,42.792,42.253,-4.601,-0.136,7.327,6.328,-0.064,-0.109,-0.072,-67.000,-3185.000,4916.000,0.401,0.113,0.220,0.882,3.087,7.718
1733.141,6,6,1.851,4.559,-4.867,5.131,12.943,-1.036,3.524,9.193,-0.716,0.0000000,0.0000000,0.000,0.000,0.000,0.000,0,00:00:00,1008.180,42.780,42.271,-4.583,-0.151,7.477,6.443,-0.058,-0.038,0.168,-94.000,-3115.000,4868.000,0.400,0.107,0.231,0.881,3.113,7.782
1733.342,6,6,1.835,4.563,-4.866,5.090,12.942,-1.055,3.456,9.100,-0.904,0.0000000,0.0000000,0.000,0.000,0.000,0.000,0,00:00:00,1008.182,42.788,42.256,-4.598,-0.180,7.492,6.278,-0.011,0.013,-0.011,-155.000,-3152.000,4875.000,0.403,0.112,0.229,0.879,3.081,7.702
1733.543,6,6,1.820,4.565,-4.876,5.070,12.920,-1.063,3.533,9.002,-0.820,0.0000000,0.0000000,0.000,0.000,0.000,0.000,0,00:00:00,1008.184,42.784,42.235,-4.618,-0.187,7.406,6.271,0.019,0.107,0.064,-45.000,-3142.000,4904.000,0.403,0.120,0.238,0.876,3.142,7.855
1733.744,6,6,1.806,4.566,-4.894,5.012,12.939,-1.091,3.314,9.204,-0.906,0.0000000,0.0000000,0.000,0.000,0.000,0.000,0,00:00:00,1008.187,42.771,42.213,-4.641,-0.172,7.513,6.328,-0.019,-0.047,-0.194,33.000,-3208.000,4973.000,0.403,0.118,0.222,0.880,3.177,7.944
1733.945,6,6,1.786,4.570,-4.907,4.907,12.976,-1.107,3.044,9.307,-0.880,0.0000000,0.0000000,0.000,0.000,0.000,0.000,0,00:00:00,1008.187,42.783,42.212,-4.642,-0.151,7.456,6.407,0.034,-0.030,-0.211,-138.000,-3142.000,4949.000,0.404,0.115,0.206,0.884,3.135,7.839
1734.146,6,6,1.762,4.576,-4.918,4.826,12.993,-1.118,3.113,9.218,-0.874,0.0000000,0.0000000,0.000,0.000,0.000,0.000,0,00:00:00,1008.188,42.768,42.207,-4.647,-0.136,7.434,6.335,-0.053,0.002,-0.009,86.000,-3184.000,4977.000,0.403,0.110,0.209,0.885,3.110,7.774
1734.347,6,6,1.735,4.582,-4.900,4.730,13.022,-1.126,2.985,9.288,-0.977,0.0000000,0.0000000,0.000,0.000,0.000,0.000,0,00:00:00,1008.181,42.779,42.264,-4.590,-0.165,7.499,6.314,-0.026,0.043,-0.138,-103.000,-3151.000,4915.000,0.403,0.111,0.202,0.886,3.158,7.895
1737.747,6,6,21.928,63.863,-9.905,6.212,19.121,-1.229,3.023,9.329,-0.990,0.0000000,0.0000000,0.000,0.000,0.000,0.000,0,00:00:00,1008.174,42.766,42.322,-4.532,-0.194,7.506,6.386,-0.017,-0.083,0.047,21.000,-3153.000,4905.000,0.405,0.103,0.202,0.886,3.084,7.710
1737.948,6,6,1.951,5.701,-4.779,1.329,4.933,-0.002,3.068,9.356,-1.051,0.0000000,0.0000000,0.000,0.000,0.000,0.000,0,00:00:00,1008.169,42.770,42.360,-4.494,-0.151,7.549,6.407,0.053,0.036,-0.032,23.000,-3177.000,4943.000,0.408,0.105,0.202,0.884,3.081,7.702
1738.149,6,6,1.075,3.247,-4.633,1.622,5.916,-0.169,2.926,9.329,-1.035,0.0000000,0.0000000,0.000,0.000,0.000,0.000,0,00:00:00,1008.170,42.759,42.352,-4.502,-0.165,7.492,6.364,-0.019,-0.015,-0.081,-116.000,-3123.000,4897.000,0.407,0.104,0.196,0.886,3.071,7.677
1738.350,6,6,0.862,2.737,-4.575,2.026,7.313,-0.358,2.787,9.405,-1.101,0.0000000,0.0000000,0.000,0.000,0.000,0.000,0,00:00:00,1008.163,42.759,42.417,-4.437,-0.187,7.506,6.407,0.062,-0.017,-0.094,-132.000,-3131.000,4890.000,0.409,0.102,0.188,0.887,3.139,7.847
1738.551,6,6,0.846,2.809,-4.581,2.420,8.705,-0.577,2.689,9.357,-1.248,0.0000000,0.0000000,0.000,0.000,0.000,0.000,0,00:00:00,1008.165,42.773,42.398,-4.456,-0.108,7.520,6.307,0.053,-0.004,-0.166,-137.000,-3108.000,4942.000,0.413,0.100,0.177,0.888,3.171,7.927
1738.752,6,6,0.912,3.118,-4.628,2.798,9.970,-0.786,2.764,9.309,-1.242,0.0000000,0.0000000,0.000,0.000,0.000,0.000,0,00:00:00,1008.170,42.774,42.357,-4.497,-0.129,7.499,6.292,-0.019,-0.049,0.055,38.000,-3179.000,4966.000,0.413,0.092,0.181,0.888,3.097,7.742
1738.953,6,6,1.007,3.509,-4.671,3.078,11.080,-0.920,2.526,9.469,-1.007,0.0000000,0.0000000,0.000,0.000,0.000,0.000,0,00:00:00,1008.168,42.766,42.371,-4.483,-0.208,7.456,6.436,-0.036,0.119,-0.145,19.000,-3179.000,4974.000,0.406,0.101,0.176,0.891,3.181,7.952
1739.154,6,6,1.103,3.894,-4.713,3.320,11.963,-1.052,2.634,9.449,-1.126,0.0000000,0.0000000,0.000,0.000,0.000,0.000,0,00:00:00,1008.169,42.768,42.361,-4.493,-0.136,7.542,6.371,-0.034,-0.032,-0.036,32.000,-3142.000,4952.000,0.407,0.094,0.174,0.892,3.190,7.976
1739.355,6,6,1.189,4.222,-4.739,3.534,12.597,-1.148,2.807,9.337,-1.119,0.0000000,0.0000000,0.000,0.000,0.000,0.000,0,00:00:00,1008.167,42.771,42.384,-4.470,-0.215,7.528,6.292,-0.064,0.130,0.109,7.000,-3183.000,4974.000,0.406,0.100,0.190,0.888,3.129,7.823
1739.556,6,6,1.260,4.472,-4.762,3.701,13.047,-1.180,2.856,9.432,-0.887,0.0000000,0.0000000,0.000,0.000,0.000,0.000,0,00:00:00,1008.167,42.768,42.377,-4.477,-0.187,7.513,6.436,-0.100,0.070,-0.021,-22.000,-3125.000,4928.000,0.401,0.103,0.193,0.890,3.081,7.702
1739.757,6,6,1.314,4.648,-4.790,3.797,13.328,-1.249,2.742,9.402,-1.117,0.0000000,0.0000000,0.000,0.000,0.000,0.000,0,00:00:00,1008.171,42.773,42.349,-4.505,-0.165,7.556,6.328,0.021,0.032,-0.153,23.000,-3173.000,4828.000,0.406,0.105,0.184,0.889,3.177,7.944
1739.958,6,6,1.350,4.757,-4.815,3.859,13.463,-1.320,2.753,9.284,-1.215,0.0000000,0.0000000,0.000,0.000,0.000,0.000,0,00:00:00,1008.171,42.757,42.345,-4.509,-0.144,7.513,6.228,-0.019,0.006,-0.049,39.000,-3181.000,4861.000,0.409,0.101,0.183,0.888,3.119,7.798
1740.159,6,6,1.373,4.815,-4.829,3.896,13.517,-1.346,2.758,9.290,-1.079,0.0000000,0.0000000,0.000,0.000,0.000,0.000,0,00:00:00,1008.170,42.758,42.353,-4.501,-0.108,7.449,6.292,-0.051,0.028,-0.055,17.000,-3164.000,4914.000,0.407,0.099,0.183,0.889,3.161,7.903
1740.367,6,6,1.410,4.906,-4.865,3.985,13.568,-1.398,3.039,9.330,-1.164,0.0000000,0.0000000,0.000,0.000,0.000,0.000,0,00:00:00,1008.175,42.759,42.311,-4.542,-0.129,7.564,6.357,0.030,0.028,0.141,-121.000,-3143.000,4936.000,0.411,0.097,0.196,0.885,3.148,7.871
1740.568,6,6,1.417,4.869,-4.884,4.070,13.494,-1.385,3.216,9.235,-0.937,0.0000000,0.0000000,0.000,0.000,0.000,0.000,0,00:00:00,1008.177,42.762,42.301,-4.553,-0.108,7.470,6.378,-0.068,0.049,0.124,16.000,-3152.000,4909.000,0.406,0.098,0.208,0.885,3.181,7.952
1740.769,6,6,1.431,4.834,-4.878,4.140,13.427,-1.385,3.175,9.217,-1.087,0.0000000,0.0000000,0.000,0.000,0.000,0.000,0,00:00:00,1008.172,42.756,42.338,-4.515,-0.136,7.463,6.364,0.100,-0.085,0.051,34.000,-3135.000,4952.000,0.412,0.096,0.206,0.883,3.177,7.944
1740.970,6,6,1.448,4.803,-4.859,4.208,13.367,-1.356,3.203,9.200,-0.978,0.0000000,0.0000000,0.000,0.000,0.000,0.000,0,00:00:00,1008.168,42.756,42.371,-4.483,-0.180,7.463,6.335,-0.053,0.072,0.060,53.000,-3159.000,4847.000,0.406,0.103,0.212,0.883,3.161,7.903
1741.171,6,6,1.467,4.775,-4.866,4.269,13.326,-1.348,3.210,9.257,-0.972,0.0000000,0.0000000,0.000,0.000,0.000,0.000,0,00:00:00,1008.174,42.752,42.326,-4.528,-0.194,7.492,6.386,0.009,-0.019,0.038,45.000,-3175.000,4930.000,0.406,0.104,0.213,0.882,3.129,7.823
1741.372,6,6,1.486,4.753,-4.869,4.305,13.301,-1.363,3.127,9.306,-1.107,0.0000000,0.0000000,0.000,0.000,0.000,0.000,0,00:00:00,1008.173,42.758,42.328,-4.526,-0.215,7.578,6.335,-0.055,-0.117,0.004,57.000,-3187.000,4922.000,0.407,0.099,0.206,0.884,3.177,7.944
1741.573,6,6,1.502,4.733,-4.880,4.349,13.261,-1.343,3.203,9.210,-0.900,0.0000000,0.0000000,0.000,0.000,0.000,0.000,0,00:00:00,1008.176,42.755,42.307,-4.547,-0.187,7.434,6.371,0.000,0.085,0.072,-148.000,-3182.000,4936.000,0.405,0.106,0.215,0.882,3.187,7.968
1741.774,6,6,1.521,4.714,-4.902,4.436,13.203,-1.334,3.460,9.090,-0.902,0.0000000,0.0000000,0.000,0.000,0.000,0.000,0,00:00:00,1008.181,42.754,42.266,-4.588,-0.079,7.434,6.335,0.015,-0.019,0.115,-118.000,-3148.000,4851.000,0.407,0.103,0.222,0.880,3.165,7.911
1741.975,6,6,1.543,4.695,-4.902,4.517,13.169,-1.315,3.473,9.181,-0.931,0.0000000,0.0000000,0.000,0.000,0.000,0.000,0,00:00:00,1008.178,42.763,42.292,-4.562,-0.151,7.499,6.400,0.002,-0.072,0.100,-26.000,-3196.000,4920.000,0.407,0.101,0.224,0.880,3.152,7.879
1742.176,6,6,1.569,4.678,-4.897,4.611,13.126,-1.287,3.594,9.105,-0.885,0.0000000,0.0000000,0.000,0.000,0.000,0.000,0,00:00:00,1008.177,42.749,42.295,-4.559,-0.108,7.513,6.335,-0.030,0.089,0.053,-5.000,-3159.000,4822.000,0.404,0.110,0.231,0.878,3.081,7.702
1742.377,6,6,1.599,4.661,-4.886,4.741,13.086,-1.247,3.835,9.091,-0.823,0.0000000,0.0000000,0.000,0.000,0.000,0.000,0,00:00:00,1008.176,42.755,42.307,-4.547,-0.158,7.571,6.378,-0.038,0.058,0.192,-72.000,-3152.000,4948.000,0.403,0.114,0.247,0.874,3.113,7.782
1742.578,6,6,1.632,4.647,-4.859,4.831,13.077,-1.190,3.703,9.223,-0.764,0.0000000,0.0000000,0.000,0.000,0.000,0.000,0,00:00:00,1008.172,42.752,42.342,-4.512,-0.136,7.592,6.457,-0.006,0.032,-0.100,-5.000,-3190.000,4856.000,0.401,0.120,0.240,0.876,3.116,7.790
1742.779,6,6,1.665,4.634,-4.851,4.914,13.023,-1.151,3.734,8.978,-0.738,0.0000000,0.0000000,0.000,0.000,0.000,0.000,0,00:00:00,1008.175,42.749,42.311,-4.542,-0.180,7.441,6.299,-0.098,-0.089,0.151,-120.000,-3155.000,4870.000,0.400,0.113,0.247,0.876,3.174,7.935
1742.980,6,6,1.696,4.619,-4.833,5.007,12.986,-1.115,3.847,9.030,-0.765,0.0000000,0.0000000,0.000,0.000,0.000,0.000,0,00:00:00,1008.173,42.751,42.333,-4.521,-0.172,7.528,6.342,-0.032,-0.013,0.094,-134.000,-3153.000,4915.000,0.401,0.116,0.251,0.874,3.174,7.935
1743.181,6,6,1.728,4.604,-4.824,5.092,12.932,-1.074,3.875,8.921,-0.678,0.0000000,0.0000000,0.000,0.000,0.000,0.000,0,00:00:00,1008.174,42.736,42.322,-4.532,-0.108,7.434,6.307,-0.055,-0.028,0.053,-159.000,-3125.000,4831.000,0.400,0.116,0.253,0.874,3.181,7.952
1743.382,6,6,1.759,4.590,-4.818,5.168,12.913,-1.046,3.887,9.063,-0.701,0.0000000,0.0000000,0.000,0.000,0.000,0.000,0,00:00:00,1008.175,42.746,42.314,-4.540,-0.136,7.571,6.357,-0.089,0.013,0.000,-103.000,-3099.000,4836.000,0.398,0.119,0.252,0.874,3.184,7.960
1743.583,6,6,1.785,4.579,-4.808,5.200,12.904,-0.995,3.722,9.092,-0.576,0.0000000,0.0000000,0.000,0.000,0.000,0.000,0,00:00:00,1008.174,42.747,42.321,-4.533,-0.172,7.456,6.421,-0.019,0.032,-0.045,42.000,-3192.000,4872.000,0.396,0.123,0.249,0.875,3.165,7.911
1743.784,6,6,1.805,4.571,-4.799,5.214,12.896,-0.988,3.668,9.085,-0.768,0.0000000,0.0000000,0.000,0.000,0.000,0.000,0,00:00:00,1008.174,42.748,42.321,-4.533,-0.115,7.506,6.342,0.028,-0.034,-0.100,28.000,-3204.000,4854.000,0.401,0.122,0.241,0.875,3.161,7.903
1743.985,6,6,1.821,4.565,-4.823,5.259,12.898,-1.032,3.860,9.119,-0.910,0.0000000,0.0000000,0.000,0.000,0.000,0.000,0,00:00:00,1008.182,42.743,42.259,-4.595,-0.187,7.657,6.342,-0.019,0.011,0.121,38.000,-3154.000,4837.000,0.404,0.122,0.250,0.872,3.174,7.935
1744.186,6,6,1.838,4.561,-4.842,5.324,12.884,-1.028,3.993,9.037,-0.702,0.0000000,0.0000000,0.000,0.000,0.000,0.000,0,00:00:00,1008.183,42.754,42.251,-4.603,-0.144,7.564,6.393,-0.055,0.026,0.109,-33.000,-3123.000,4855.000,0.400,0.123,0.259,0.870,3.177,7.944
1744.387,6,6,1.856,4.555,-4.862,5.355,12.853,-1.059,3.858,8.934,-0.885,0.0000000,0.0000000,0.000,0.000,0.000,0.000,0,00:00:00,1008.185,42.754,42.234,-4.619,-0.180,7.528,6.228,0.036,0.017,-0.045,-93.000,-3113.000,4834.000,0.404,0.128,0.255,0.869,3.081,7.702
1744.588,6,6,1.873,4.548,-4.862,5.420,12.829,-1.050,4.061,8.962,-0.766,0.0000000,0.0000000,0.000,0.000,0.000,0.000,0,00:00:00,1008.181,42.742,42.260,-4.594,-0.151,7.535,6.371,0.028,-0.019,0.141,-117.000,-3111.000,4858.000,0.405,0.126,0.264,0.867,3.177,7.944
1744.789,6,6,1.895,4.539,-4.890,5.533,12.777,-1.023,4.347,8.800,-0.563,0.0000000,0.0000000,0.000,0.000,0.000,0.000,0,00:00:00,1008.189,42.753,42.195,-4.659,-0.057,7.499,6.357,-0.015,0.107,0.138,-106.000,-3142.000,4917.000,0.401,0.130,0.280,0.863,3.087,7.718
1744.990,6,6,1.923,4.526,-4.880,5.625,12.721,-0.985,4.294,8.755,-0.629,0.0000000,0.0000000,0.000,0.000,0.000,0.000,0,00:00:00,1008.183,42.752,42.244,-4.610,-0.115,7.463,6.307,0.064,0.000,0.038,19.000,-3184.000,4914.000,0.403,0.133,0.281,0.861,3.142,7.855
1745.191,6,6,1.948,4.513,-4.881,5.665,12.698,-0.993,4.087,8.892,-0.797,0.0000000,0.0000000,0.000,0.000,0.000,0.000,0,00:00:00,1008.186,42.748,42.223,-4.631,-0.201,7.499,6.335,0.111,-0.104,-0.036,-2.000,-3175.000,5030.000,0.407,0.132,0.270,0.863,3.087,7.718
1745.392,6,6,1.970,4.504,-4.875,5.700,12.712,-0.993,4.106,9.059,-0.788,0.0000000,0.0000000,0.000,0.000,0.000,0.000,0,00:00:00,1008.184,42.746,42.240,-4.614,-0.201,7.621,6.436,0.047,-0.023,0.002,5.000,-3165.000,4907.000,0.405,0.133,0.268,0.864,3.171,7.927
1745.593,6,6,1.988,4.496,-4.880,5.733,12.676,-0.965,4.132,8.793,-0.603,0.0000000,0.0000000,0.000,0.000,0.000,0.000,0,00:00:00,1008.186,42.754,42.218,-4.636,-0.187,7.413,6.307,-0.032,0.000,0.119,39.000,-3177.000,4918.000,0.400,0.132,0.277,0.864,3.106,7.766
1745.794,6,6,2.003,4.488,-4.888,5.763,12.651,-0.924,4.145,8.832,-0.495,0.0000000,0.0000000,0.000,0.000,0.000,0.000,0,00:00:00,1008.189,42.748,42.198,-4.656,-0.086,7.398,6.378,0.047,0.011,-0.045,-147.000,-3124.000,4900.000,0.400,0.133,0.274,0.865,3.081,7.702
1745.995,6,6,2.017,4.480,-4.886,5.794,12.638,-0.921,4.182,8.879,-0.706,0.0000000,0.0000000,0.000,0.000,0.000,0.000,0,00:00:00,1008.188,42.736,42.207,-4.647,-0.165,7.528,6.335,0.077,-0.009,0.036,-9.000,-3090.000,4847.000,0.403,0.135,0.275,0.862,3.087,7.718
1746.196,6,6,2.026,4.475,-4.878,5.771,12.650,-0.912,3.929,8.990,-0.697,0.0000000,0.0000000,0.000,0.000,0.000,0.000,0,00:00:00,1008.186,42.752,42.220,-4.634,-0.172,7.492,6.371,-0.004,-0.117,-0.109,-61.000,-3119.000,4822.000,0.402,0.129,0.261,0.868,3.148,7.871
1746.397,6,6,2.031,4.471,-4.889,5.776,12.633,-0.926,4.075,8.838,-0.734,0.0000000,0.0000000,0.000,0.000,0.000,0.000,0,00:00:00,1008.190,42.744,42.186,-4.668,-0.122,7.477,6.271,0.040,0.047,0.060,2.000,-3176.000,4808.000,0.403,0.132,0.267,0.865,3.113,7.782
1746.598,6,6,2.036,4.468,-4.893,5.804,12.626,-0.899,4.206,8.882,-0.557,0.0000000,0.0000000,0.000,0.000,0.000,0.000,0,00:00:00,1008.190,42.750,42.189,-4.665,-0.187,7.513,6.357,-0.026,0.132,0.089,-117.000,-3183.000,4896.000,0.398,0.139,0.280,0.862,3.161,7.903
1746.799,6,6,2.043,4.464,-4.871,5.840,12.610,-0.837,4.254,8.833,-0.447,0.0000000,0.0000000,0.000,0.000,0.000,0.000,0,00:00:00,1008.185,42.745,42.233,-4.621,-0.108,7.470,6.364,0.013,0.072,-0.036,17.000,-3187.000,4812.000,0.396,0.142,0.282,0.862,3.174,7.935
1747.000,6,6,2.052,4.460,-4.853,5.863,12.610,-0.753,4.213,8.899,-0.269,0.0000000,0.0000000,0.000,0.000,0.000,0.000,0,00:00:00,1008.185,42.743,42.227,-4.627,-0.180,7.441,6.450,-0.058,0.055,-0.002,60.000,-3168.000,4933.000,0.390,0.143,0.286,0.863,3.161,7.903
1747.201,6,6,2.064,4.455,-4.825,5.948,12.570,-0.654,4.540,8.695,-0.156,0.0000000,0.0000000,0.000,0.000,0.000,0.000,0,00:00:00,1008.183,42.752,42.244,-4.610,-0.129,7.477,6.350,-0.089,0.181,0.113,-54.000,-3132.000,4816.000,0.386,0.150,0.305,0.858,3.181,7.952
1747.402,6,6,2.083,4.448,-4.804,6.038,12.535,-0.582,4.605,8.703,-0.205,0.0000000,0.0000000,0.000,0.000,0.000,0.000,0,00:00:00,1008.184,42.741,42.236,-4.618,-0.115,7.528,6.350,-0.053,0.023,-0.019,46.000,-3193.000,4909.000,0.387,0.150,0.306,0.857,3.081,7.702
1747.603,6,6,2.106,4.437,-4.769,6.116,12.482,-0.510,4.592,8.593,-0.198,0.0000000,0.0000000,0.000,0.000,0.000,0.000,0,00:00:00,1008.180,42.740,42.270,-4.584,-0.108,7.434,6.299,-0.089,-0.055,0.030,41.000,-3187.000,4879.000,0.388,0.144,0.306,0.857,3.174,7.935
1747.804,6,6,2.132,4.424,-4.733,6.208,12.440,-0.446,4.716,8.618,-0.192,0.0000000,0.0000000,0.000,0.000,0.000,0.000,0,00:00:00,1008.178,42.746,42.289,-4.565,-0.151,7.485,6.364,-0.055,-0.023,0.124,-18.000,-3193.000,4869.000,0.389,0.143,0.313,0.855,3.171,7.927
1748.005,6,6,2.159,4.410,-4.658,6.284,12.393,-0.363,4.686,8.567,-0.186,0.0000000,0.0000000,0.000,0.000,0.000,0.000,0,00:00:00,1008.165,42.734,42.396,-4.458,-0.172,7.413,6.357,0.009,-0.030,0.079,-119.000,-3142.000,4879.000,0.390,0.145,0.315,0.853,3.177,7.944
1748.206,6,6,2.186,4.394,-4.616,6.358,12.330,-0.320,4.730,8.461,-0.210,0.0000000,0.0000000,0.000,0.000,0.000,0.000,0,00:00:00,1008.167,42.735,42.379,-4.475,-0.136,7.406,6.256,-0.068,-0.038,0.064,14.000,-3160.000,4844.000,0.389,0.145,0.317,0.853,3.177,7.944
1748.407,6,6,2.211,4.380,-4.594,6.413,12.329,-0.322,4.686,8.737,-0.347,0.0000000,0.0000000,0.000,0.000,0.000,0.000,0,00:00:00,1008.168,42.735,42.371,-4.483,-0.194,7.535,6.450,0.079,-0.141,0.034,-123.000,-3181.000,4859.000,0.396,0.142,0.309,0.853,3.158,7.895
1748.608,6,6,2.234,4.369,-4.530,6.467,12.303,-0.305,4.724,8.590,-0.400,0.0000000,0.0000000,0.000,0.000,0.000,0.000,0,00:00:00,1008.154,42.733,42.485,-4.369,-0.086,7.492,6.335,0.051,-0.043,0.030,11.000,-3180.000,4823.000,0.398,0.143,0.308,0.852,3.084,7.710
1748.809,6,6,2.251,4.362,-4.530,6.442,12.323,-0.367,4.370,8.806,-0.570,0.0000000,0.0000000,0.000,0.000,0.000,0.000,0,00:00:00,1008.163,42.736,42.410,-4.444,-0.172,7.506,6.371,0.145,-0.047,-0.168,-12.000,-3189.000,4881.000,0.402,0.147,0.291,0.856,3.081,7.702
1749.010,6,6,2.256,4.359,-4.500,6.393,12.328,-0.347,4.258,8.725,-0.291,0.0000000,0.0000000,0.000,0.000,0.000,0.000,0,00:00:00,1008.155,42.727,42.482,-4.372,-0.201,7.391,6.299,-0.107,0.149,-0.068,41.000,-3170.000,4871.000,0.390,0.154,0.295,0.859,3.135,7.839
1749.211,6,6,2.258,4.357,-4.530,6.414,12.330,-0.354,4.613,8.704,-0.195,0.0000000,0.0000000,0.000,0.000,0.000,0.000,0,00:00:00,1008.167,42.738,42.377,-4.477,-0.101,7.520,6.364,-0.087,0.051,0.075,-182.000,-3148.000,4940.000,0.388,0.150,0.306,0.856,3.110,7.774
1752.619,6,6,31.168,60.044,-7.032,9.195,17.735,-0.840,4.485,8.654,-0.584,0.0000000,0.0000000,0.000,0.000,0.000,0.000,0,00:00:00,1008.177,42.725,42.298,-4.556,-0.158,7.513,6.235,0.158,-0.053,-0.053,-9.000,-3169.000,4987.000,0.400,0.151,0.298,0.853,3.174,7.935
1752.820,6,6,2.770,5.335,-4.701,2.328,4.387,-0.221,4.764,8.573,-0.237,0.0000000,0.0000000,0.000,0.000,0.000,0.000,0,00:00:00,1008.179,42.731,42.284,-4.570,-0.151,7.477,6.350,0.011,0.209,0.151,-27.000,-3149.000,4961.000,0.393,0.160,0.320,0.847,3.094,7.734
1753.021,6,6,1.574,3.017,-4.646,2.877,5.307,-0.246,4.876,8.689,-0.255,0.0000000,0.0000000,0.000,0.000,0.000,0.000,0,00:00:00,1008.178,42.722,42.292,-4.562,-0.180,7.621,6.421,0.017,0.019,0.023,-168.000,-3136.000,4898.000,0.393,0.160,0.323,0.846,3.094,7.734
1753.222,6,6,1.331,2.518,-4.645,3.600,6.565,-0.262,4.791,8.516,-0.150,0.0000000,0.0000000,0.000,0.000,0.000,0.000,0,00:00:00,1008.180,42.725,42.273,-4.581,-0.136,7.427,6.350,0.000,-0.038,0.015,50.000,-3202.000,4988.000,0.391,0.156,0.323,0.848,3.177,7.944
